batchNum,subjectID ,trialNum,longerArm,response_longerArm,response_yesNo,response_AFC,AFCquestion,RT_longerArm,RT_yesNo,RT_AFC,RT_IBfamiliarity,RT_age,RT_ishihara,aboveBelow,trialType,IBstimulus_color,IBstimulus_location,trialTime
4,0,0,vertical,vertical,null,null,null,1848.715,null,null,null,null,null,above,IBstimulus_absent,null,null,8578.14
4,0,1,vertical,vertical,null,null,null,2652.08,null,null,null,null,null,above,IBstimulus_absent,null,null,6883.795
4,0,2,vertical,vertical,null,null,null,2143.055,null,null,null,null,null,above,IBstimulus_absent,null,null,5407.055
4,0,3,vertical,vertical,yes,red,reportColor,2546.59,4143.49,6647.89,7831.37,1496.22,2766.695,below,IBstimulus_present,red,right,28223.025
4,1,0,horizontal,horizontal,null,null,null,4027,null,null,null,null,null,below,IBstimulus_absent,null,null,11908
4,1,1,horizontal,horizontal,null,null,null,2252,null,null,null,null,null,above,IBstimulus_absent,null,null,5455
4,1,2,horizontal,horizontal,null,null,null,2404,null,null,null,null,null,below,IBstimulus_absent,null,null,5567
4,1,3,vertical,vertical,yes,blue,reportColor,2248,6415,2737,2167,3678,7888,above,IBstimulus_present,blue,right,28811
4,2,0,vertical,vertical,null,null,null,2439.315,null,null,null,null,null,above,IBstimulus_absent,null,null,13851.76
4,2,1,vertical,vertical,null,null,null,2188.53,null,null,null,null,null,below,IBstimulus_absent,null,null,6699.415
4,2,2,horizontal,horizontal,null,null,null,2285.39,null,null,null,null,null,above,IBstimulus_absent,null,null,6597.495
4,2,3,vertical,horizontal,yes,red,reportColor,6247.67,3142.555,1719.96,8238.025,4775.645,6023.075,below,IBstimulus_present,red,left,33968.63
4,3,0,horizontal,vertical,null,null,null,7786.4,null,null,null,null,null,above,IBstimulus_absent,null,null,12975.12
4,3,1,horizontal,horizontal,null,null,null,2931.78,null,null,null,null,null,below,IBstimulus_absent,null,null,7879.3
4,3,2,horizontal,horizontal,null,null,null,3379.52,null,null,null,null,null,above,IBstimulus_absent,null,null,9575.48
4,3,3,horizontal,horizontal,yes,blue,reportColor,2079.93,6639.525,10777.295,6227.63,3640.41,9384.97,above,IBstimulus_present,blue,left,43995.855
4,4,0,vertical,horizontal,null,null,null,3927.405,null,null,null,null,null,above,IBstimulus_absent,null,null,10664.205
4,4,1,horizontal,horizontal,null,null,null,2581.18,null,null,null,null,null,above,IBstimulus_absent,null,null,6434.595
4,4,2,horizontal,horizontal,null,null,null,2420.475,null,null,null,null,null,below,IBstimulus_absent,null,null,5773.13
4,4,3,horizontal,horizontal,no,blue,reportColor,1493.52,4325.785,10160.97,6849.555,4578.81,4956.77,above,IBstimulus_absent,null,null,35242.195
4,5,0,vertical,vertical,null,null,null,4936.7,null,null,null,null,null,above,IBstimulus_absent,null,null,11407.76
4,5,1,vertical,vertical,null,null,null,1929.895,null,null,null,null,null,above,IBstimulus_absent,null,null,6573.58
4,5,2,vertical,vertical,null,null,null,1909.025,null,null,null,null,null,below,IBstimulus_absent,null,null,6884.79
4,5,3,vertical,vertical,yes,blue,reportColor,4089.765,3309.935,4296.1,4644.88,14044.17,4116.36,below,IBstimulus_present,blue,right,38081.64
4,6,0,vertical,vertical,null,null,null,4404.08,null,null,null,null,null,above,IBstimulus_absent,null,null,16317.345
4,6,1,horizontal,horizontal,null,null,null,4163.425,null,null,null,null,null,above,IBstimulus_absent,null,null,13826.31
4,6,2,vertical,vertical,null,null,null,3717.925,null,null,null,null,null,above,IBstimulus_absent,null,null,9094.36
4,6,3,horizontal,horizontal,yes,blue,reportColor,3707.765,10223.105,15063.525,7751.445,6064.005,11950.535,below,IBstimulus_absent,null,null,59092.525
4,7,0,vertical,null,null,null,null,null,null,null,null,null,null,below,IBstimulus_absent,null,null,
4,7,1,vertical,null,null,null,null,null,null,null,null,null,null,below,IBstimulus_absent,null,null,
4,7,2,vertical,null,null,null,null,null,null,null,null,null,null,below,IBstimulus_absent,null,null,
4,7,3,vertical,null,null,null,reportColor,null,null,null,null,null,null,below,IBstimulus_present,red,left,
4,8,0,horizontal,horizontal,null,null,null,4268.08,null,null,null,null,null,below,IBstimulus_absent,null,null,12340.98
4,8,1,vertical,vertical,null,null,null,3654.04,null,null,null,null,null,above,IBstimulus_absent,null,null,7879.935
4,8,2,horizontal,horizontal,null,null,null,2870.48,null,null,null,null,null,below,IBstimulus_absent,null,null,6662.06
4,8,3,horizontal,horizontal,no,blue,reportColor,2344.055,5787.52,8283.3,6506.655,5732.28,4903.125,below,IBstimulus_absent,null,null,37312.395
4,9,0,vertical,null,null,null,null,null,null,null,null,null,null,above,IBstimulus_absent,null,null,
4,9,1,vertical,null,null,null,null,null,null,null,null,null,null,above,IBstimulus_absent,null,null,
4,9,2,horizontal,null,null,null,null,null,null,null,null,null,null,below,IBstimulus_absent,null,null,
4,9,3,vertical,null,null,null,reportColor,null,null,null,null,null,null,below,IBstimulus_present,blue,left,
4,10,0,vertical,vertical,null,null,null,3474.825,null,null,null,null,null,below,IBstimulus_absent,null,null,9914.985
4,10,1,horizontal,horizontal,null,null,null,1345.155,null,null,null,null,null,below,IBstimulus_absent,null,null,5875.045
4,10,2,vertical,vertical,null,null,null,2250.74,null,null,null,null,null,above,IBstimulus_absent,null,null,6631.765
4,10,3,vertical,vertical,no,blue,reportColor,1520.765,3092.025,4075.295,3479.51,4185.46,6009.53,below,IBstimulus_absent,null,null,26602.045
4,11,0,horizontal,horizontal,null,null,null,4375.705,null,null,null,null,null,above,IBstimulus_absent,null,null,10890.55
4,11,1,vertical,vertical,null,null,null,2707.3,null,null,null,null,null,above,IBstimulus_absent,null,null,7620.33
4,11,2,vertical,vertical,null,null,null,2677.08,null,null,null,null,null,below,IBstimulus_absent,null,null,8411.18
4,11,3,vertical,vertical,yes,red,reportColor,3656.6,6578.07,2770.36,12857.27,4941.98,6225.03,below,IBstimulus_present,red,right,41457.91
4,12,0,horizontal,horizontal,null,null,null,3806.175,null,null,null,null,null,above,IBstimulus_absent,null,null,10539.785
4,12,1,vertical,vertical,null,null,null,3407.355,null,null,null,null,null,above,IBstimulus_absent,null,null,10768.28
4,12,2,horizontal,horizontal,null,null,null,3804.705,null,null,null,null,null,below,IBstimulus_absent,null,null,7210.265
4,12,3,vertical,vertical,yes,blue,reportColor,2350.895,10064.29,3683.58,3517.46,4291.09,5620.085,below,IBstimulus_present,blue,left,32389.735
4,13,0,vertical,null,null,null,null,null,null,null,null,null,null,above,IBstimulus_absent,null,null,
4,13,1,horizontal,null,null,null,null,null,null,null,null,null,null,above,IBstimulus_absent,null,null,
4,13,2,horizontal,null,null,null,null,null,null,null,null,null,null,above,IBstimulus_absent,null,null,
4,13,3,vertical,null,null,null,reportColor,null,null,null,null,null,null,above,IBstimulus_present,red,right,
4,14,0,vertical,vertical,null,null,null,3479,null,null,null,null,null,above,IBstimulus_absent,null,null,12787
4,14,1,horizontal,horizontal,null,null,null,2325,null,null,null,null,null,below,IBstimulus_absent,null,null,6942
4,14,2,vertical,vertical,null,null,null,1850,null,null,null,null,null,below,IBstimulus_absent,null,null,4696
4,14,3,vertical,vertical,no,blue,reportColor,2379,5992,8837,12602,3783,10476,above,IBstimulus_absent,null,null,46912
4,15,0,vertical,horizontal,null,null,null,3181.68,null,null,null,null,null,below,IBstimulus_absent,null,null,13561.39
4,15,1,horizontal,vertical,null,null,null,1833.24,null,null,null,null,null,below,IBstimulus_absent,null,null,12907.735
4,15,2,vertical,horizontal,null,null,null,1112.67,null,null,null,null,null,above,IBstimulus_absent,null,null,4042.285
4,15,3,vertical,horizontal,no,blue,reportColor,1527.03,4540.345,5414.805,3351.3,2788.525,3818.095,below,IBstimulus_absent,null,null,24589.01
4,16,0,horizontal,horizontal,null,null,null,2860.77,null,null,null,null,null,below,IBstimulus_absent,null,null,14426.01
4,16,1,horizontal,horizontal,null,null,null,1884.345,null,null,null,null,null,below,IBstimulus_absent,null,null,5508.355
4,16,2,horizontal,vertical,null,null,null,1965.74,null,null,null,null,null,above,IBstimulus_absent,null,null,10835.565
4,16,3,horizontal,horizontal,yes,blue,reportColor,2307.29,3292.855,4838.36,5465.32,3040.84,4127.53,above,IBstimulus_present,blue,left,26158.205
4,17,0,vertical,vertical,null,null,null,3651.99,null,null,null,null,null,above,IBstimulus_absent,null,null,21056.605
4,17,1,vertical,vertical,null,null,null,2253.515,null,null,null,null,null,above,IBstimulus_absent,null,null,5952.75
4,17,2,vertical,vertical,null,null,null,1656.755,null,null,null,null,null,above,IBstimulus_absent,null,null,5254.99
4,17,3,horizontal,horizontal,no,blue,reportColor,2291.09,7515.325,26242,7431.7,2962.635,3549.265,below,IBstimulus_present,blue,right,53746.73
4,18,0,vertical,horizontal,null,null,null,4906.075,null,null,null,null,null,above,IBstimulus_absent,null,null,10109.96
4,18,1,vertical,vertical,null,null,null,1864.745,null,null,null,null,null,above,IBstimulus_absent,null,null,8130.105
4,18,2,vertical,vertical,null,null,null,2090.89,null,null,null,null,null,above,IBstimulus_absent,null,null,9275.88
4,18,3,vertical,vertical,no,red,reportColor,3107.645,4425.985,7299.125,4285.71,2929.34,5258.91,below,IBstimulus_absent,null,null,31866.605
4,19,0,vertical,vertical,null,null,null,5512.455,null,null,null,null,null,above,IBstimulus_absent,null,null,9570.325
4,19,1,vertical,vertical,null,null,null,2078.205,null,null,null,null,null,below,IBstimulus_absent,null,null,6479.385
4,19,2,vertical,vertical,null,null,null,2774.165,null,null,null,null,null,below,IBstimulus_absent,null,null,6261.155
4,19,3,vertical,vertical,no,red,reportColor,2145.48,3255.13,6296.305,6135.145,4012.235,4041.905,below,IBstimulus_present,red,right,29102.695
4,20,0,vertical,vertical,null,null,null,4448,null,null,null,null,null,below,IBstimulus_absent,null,null,13506
4,20,1,horizontal,horizontal,null,null,null,3123,null,null,null,null,null,below,IBstimulus_absent,null,null,6989
4,20,2,vertical,horizontal,null,null,null,2657,null,null,null,null,null,above,IBstimulus_absent,null,null,6067
4,20,3,horizontal,horizontal,yes,blue,reportColor,6181,4839,6018,7032,3276,4800,above,IBstimulus_present,blue,right,35806
4,21,0,vertical,vertical,null,null,null,3884,null,null,null,null,null,below,IBstimulus_absent,null,null,13756
4,21,1,horizontal,horizontal,null,null,null,2086,null,null,null,null,null,below,IBstimulus_absent,null,null,6911
4,21,2,vertical,vertical,null,null,null,1404,null,null,null,null,null,below,IBstimulus_absent,null,null,4739
4,21,3,horizontal,horizontal,yes,blue,reportColor,1093,6093,4254,8105,4494,4245,below,IBstimulus_present,blue,right,31349
4,22,0,vertical,vertical,null,null,null,2055,null,null,null,null,null,above,IBstimulus_absent,null,null,6120
4,22,1,horizontal,horizontal,null,null,null,953,null,null,null,null,null,above,IBstimulus_absent,null,null,3610
4,22,2,horizontal,horizontal,null,null,null,1172,null,null,null,null,null,below,IBstimulus_absent,null,null,3919
4,22,3,horizontal,horizontal,yes,red,reportColor,1103,3169,892,1991,58999,72989,below,IBstimulus_present,red,left,142149
4,23,0,horizontal,horizontal,null,null,null,4223.9,null,null,null,null,null,below,IBstimulus_absent,null,null,11460.395
4,23,1,vertical,vertical,null,null,null,3948.06,null,null,null,null,null,below,IBstimulus_absent,null,null,9621.15
4,23,2,horizontal,horizontal,null,null,null,2433.19,null,null,null,null,null,above,IBstimulus_absent,null,null,6950.03
4,23,3,horizontal,horizontal,no,blue,reportColor,1957.715,5720.14,6686.765,5000.095,3664.505,8742.575,above,IBstimulus_present,red,right,35427.81
4,24,0,horizontal,horizontal,null,null,null,2506.585,null,null,null,null,null,below,IBstimulus_absent,null,null,20094.905
4,24,1,vertical,vertical,null,null,null,2274.515,null,null,null,null,null,above,IBstimulus_absent,null,null,6063.935
4,24,2,horizontal,horizontal,null,null,null,2187.885,null,null,null,null,null,above,IBstimulus_absent,null,null,5196.54
4,24,3,vertical,vertical,yes,red,reportColor,2894.405,5428.89,2654.045,10588.965,3491.28,7507.08,below,IBstimulus_present,red,right,35912.64
4,25,0,horizontal,horizontal,null,null,null,8035.69,null,null,null,null,null,below,IBstimulus_absent,null,null,55717.995
4,25,1,horizontal,horizontal,null,null,null,4932.635,null,null,null,null,null,below,IBstimulus_absent,null,null,10824.375
4,25,2,vertical,vertical,null,null,null,4148.635,null,null,null,null,null,above,IBstimulus_absent,null,null,8152.42
4,25,3,vertical,vertical,no,blue,reportColor,5985.525,13573.06,18285.83,13827.67,6682.975,11747.19,below,IBstimulus_present,blue,right,73860.11
4,26,0,vertical,vertical,null,null,null,3030.895,null,null,null,null,null,above,IBstimulus_absent,null,null,8050.815
4,26,1,vertical,vertical,null,null,null,2084.115,null,null,null,null,null,below,IBstimulus_absent,null,null,6182.18
4,26,2,horizontal,horizontal,null,null,null,1286.57,null,null,null,null,null,below,IBstimulus_absent,null,null,4990.54
4,26,3,horizontal,horizontal,no,red,reportColor,1098.745,2967.52,5935.32,3727.585,3063.335,3934.9,below,IBstimulus_absent,null,null,24322.585
4,27,0,vertical,horizontal,null,null,null,5218.225,null,null,null,null,null,below,IBstimulus_absent,null,null,9808.74
4,27,1,vertical,vertical,null,null,null,1891.71,null,null,null,null,null,below,IBstimulus_absent,null,null,7131.235
4,27,2,vertical,vertical,null,null,null,1593.47,null,null,null,null,null,above,IBstimulus_absent,null,null,4697.705
4,27,3,vertical,vertical,yes,blue,reportColor,1697.385,5452.245,5559.22,4698.58,4152.295,4625.65,below,IBstimulus_absent,null,null,29070.93
4,28,0,horizontal,horizontal,null,null,null,3330.52,null,null,null,null,null,above,IBstimulus_absent,null,null,9199.9
4,28,1,vertical,vertical,null,null,null,2587.015,null,null,null,null,null,above,IBstimulus_absent,null,null,12122.825
4,28,2,vertical,vertical,null,null,null,1508.61,null,null,null,null,null,above,IBstimulus_absent,null,null,4604.065
4,28,3,vertical,vertical,yes,red,reportColor,1591.78,4687.465,1927.735,6511.72,3843.66,4631.825,below,IBstimulus_present,red,left,26078.99
4,29,0,vertical,vertical,null,null,null,3169.27,null,null,null,null,null,above,IBstimulus_absent,null,null,10401.175
4,29,1,horizontal,horizontal,null,null,null,2856.44,null,null,null,null,null,above,IBstimulus_absent,null,null,8366.2
4,29,2,horizontal,horizontal,null,null,null,3230.955,null,null,null,null,null,below,IBstimulus_absent,null,null,7422.575
4,29,3,vertical,vertical,yes,red,reportColor,2477.03,2914.025,2747.67,3595.475,4677.235,5637.71,below,IBstimulus_present,red,left,25843.83
4,30,0,horizontal,horizontal,null,null,null,4180.37,null,null,null,null,null,above,IBstimulus_absent,null,null,10646.285
4,30,1,vertical,vertical,null,null,null,2169.36,null,null,null,null,null,above,IBstimulus_absent,null,null,6045.035
4,30,2,horizontal,horizontal,null,null,null,1579.8,null,null,null,null,null,above,IBstimulus_absent,null,null,6567.07
4,30,3,horizontal,horizontal,yes,blue,reportColor,1732.3,5767.47,6415.765,4087.655,4687.725,4607.705,below,IBstimulus_present,red,right,30399.405
4,31,0,vertical,vertical,null,null,null,1876.97,null,null,null,null,null,above,IBstimulus_absent,null,null,6211.335
4,31,1,horizontal,horizontal,null,null,null,1935,null,null,null,null,null,above,IBstimulus_absent,null,null,11241.38
4,31,2,horizontal,horizontal,null,null,null,1763.945,null,null,null,null,null,below,IBstimulus_absent,null,null,5012.645
4,31,3,horizontal,horizontal,no,blue,reportColor,2020.42,2372.165,4991.57,2546.9,2915.725,3207.4,below,IBstimulus_present,blue,right,21726.495
4,32,0,vertical,vertical,null,null,null,4840,null,null,null,null,null,below,IBstimulus_absent,null,null,18491
4,32,1,horizontal,horizontal,null,null,null,2833,null,null,null,null,null,below,IBstimulus_absent,null,null,7616
4,32,2,horizontal,horizontal,null,null,null,2606,null,null,null,null,null,below,IBstimulus_absent,null,null,6438
4,32,3,vertical,vertical,yes,blue,reportColor,3942,6404,29607,42322,4413,6636,above,IBstimulus_absent,null,null,96525
4,33,0,horizontal,horizontal,null,null,null,3513.915,null,null,null,null,null,above,IBstimulus_absent,null,null,34288.04
4,33,1,vertical,vertical,null,null,null,2046.985,null,null,null,null,null,above,IBstimulus_absent,null,null,6879.645
4,33,2,horizontal,horizontal,null,null,null,1956.71,null,null,null,null,null,below,IBstimulus_absent,null,null,7708.62
4,33,3,horizontal,horizontal,yes,red,reportColor,1673.485,3289.67,1372.775,2494.81,2626.66,5872.565,below,IBstimulus_present,red,right,20909.2
4,34,0,vertical,vertical,null,null,null,3085.28,null,null,null,null,null,above,IBstimulus_absent,null,null,20497.37
4,34,1,horizontal,horizontal,null,null,null,2880.31,null,null,null,null,null,below,IBstimulus_absent,null,null,10077.605
4,34,2,horizontal,horizontal,null,null,null,2342.48,null,null,null,null,null,above,IBstimulus_absent,null,null,7106.85
4,34,3,vertical,vertical,yes,blue,reportColor,1955.73,6218.915,14738.38,25667.475,7830.665,6795.235,above,IBstimulus_present,blue,right,67422.225
4,35,0,vertical,vertical,null,null,null,3539.455,null,null,null,null,null,below,IBstimulus_absent,null,null,8079.16
4,35,1,horizontal,horizontal,null,null,null,2081.505,null,null,null,null,null,below,IBstimulus_absent,null,null,6367.55
4,35,2,horizontal,horizontal,null,null,null,3087.19,null,null,null,null,null,above,IBstimulus_absent,null,null,6370.98
4,35,3,vertical,vertical,yes,blue,reportColor,1894.63,3028.025,2374.77,4584.485,2595.75,6139.7,above,IBstimulus_present,blue,left,23809.065
4,36,0,vertical,vertical,null,null,null,3956.93,null,null,null,null,null,below,IBstimulus_absent,null,null,11620.54
4,36,1,horizontal,horizontal,null,null,null,3443.97,null,null,null,null,null,below,IBstimulus_absent,null,null,7849.59
4,36,2,vertical,vertical,null,null,null,3621.005,null,null,null,null,null,above,IBstimulus_absent,null,null,7373.235
4,36,3,vertical,vertical,no,blue,reportColor,3413.755,9231.3,11977.055,4730.9,5127.44,6167.88,above,IBstimulus_present,red,left,44689.16
4,37,0,horizontal,horizontal,null,null,null,5951.56,null,null,null,null,null,above,IBstimulus_absent,null,null,13954.205
4,37,1,horizontal,horizontal,null,null,null,2013.39,null,null,null,null,null,above,IBstimulus_absent,null,null,12525.61
4,37,2,horizontal,horizontal,null,null,null,3347.645,null,null,null,null,null,below,IBstimulus_absent,null,null,7483.785
4,37,3,vertical,vertical,yes,blue,reportColor,4884.49,5471.565,9227.565,7547.465,4171.34,8083.74,above,IBstimulus_present,blue,left,43433.145
4,38,0,vertical,vertical,null,null,null,2483.655,null,null,null,null,null,above,IBstimulus_absent,null,null,12399.195
4,38,1,vertical,vertical,null,null,null,1847.86,null,null,null,null,null,above,IBstimulus_absent,null,null,7193.715
4,38,2,horizontal,horizontal,null,null,null,1632.125,null,null,null,null,null,below,IBstimulus_absent,null,null,5850.735
4,38,3,horizontal,horizontal,no,blue,reportColor,2688.41,6495.62,10980.285,6795.225,5180.45,4687.8,below,IBstimulus_present,red,right,40230.455
4,39,0,vertical,vertical,null,null,null,4546.895,null,null,null,null,null,below,IBstimulus_absent,null,null,11697.8
4,39,1,vertical,vertical,null,null,null,3310.085,null,null,null,null,null,above,IBstimulus_absent,null,null,8426.52
4,39,2,horizontal,horizontal,null,null,null,3824.595,null,null,null,null,null,above,IBstimulus_absent,null,null,9245.88
4,39,3,horizontal,horizontal,yes,blue,reportColor,4703.55,7447.615,27470.755,6936.085,6447.425,7199.53,above,IBstimulus_present,blue,left,63605.635
4,40,0,vertical,vertical,null,null,null,5512.455,null,null,null,null,null,above,IBstimulus_absent,null,null,9570.325
4,40,1,vertical,vertical,null,null,null,2078.205,null,null,null,null,null,below,IBstimulus_absent,null,null,6479.385
4,40,2,vertical,vertical,null,null,null,2774.165,null,null,null,null,null,below,IBstimulus_absent,null,null,6261.155
4,40,3,vertical,vertical,no,red,reportColor,2145.48,3255.13,6296.305,6135.145,4012.235,4041.905,below,IBstimulus_present,red,right,29102.695
4,41,0,horizontal,horizontal,null,null,null,8035.69,null,null,null,null,null,below,IBstimulus_absent,null,null,55717.995
4,41,1,horizontal,horizontal,null,null,null,4932.635,null,null,null,null,null,below,IBstimulus_absent,null,null,10824.375
4,41,2,vertical,vertical,null,null,null,4148.635,null,null,null,null,null,above,IBstimulus_absent,null,null,8152.42
4,41,3,vertical,vertical,no,blue,reportColor,5985.525,13573.06,18285.83,13827.67,6682.975,11747.19,below,IBstimulus_present,blue,right,73860.11
4,42,0,horizontal,horizontal,null,null,null,8479.33,null,null,null,null,null,below,IBstimulus_absent,null,null,15982.54
4,42,1,vertical,vertical,null,null,null,2718.82,null,null,null,null,null,above,IBstimulus_absent,null,null,9661.225
4,42,2,vertical,vertical,null,null,null,3876.86,null,null,null,null,null,below,IBstimulus_absent,null,null,9321.5
4,42,3,horizontal,horizontal,no,blue,reportColor,2778.51,7077.66,7396.765,8734.595,5594.935,6650.955,above,IBstimulus_absent,null,null,42385.575
4,43,0,horizontal,horizontal,null,null,null,2585.825,null,null,null,null,null,above,IBstimulus_absent,null,null,7631.56
4,43,1,vertical,vertical,null,null,null,1991.9,null,null,null,null,null,below,IBstimulus_absent,null,null,7776.01
4,43,2,horizontal,horizontal,null,null,null,1532.86,null,null,null,null,null,below,IBstimulus_absent,null,null,4851.085
4,43,3,horizontal,horizontal,no,blue,reportColor,1916.02,5254.19,4815.83,5183.61,3101.47,3730.85,above,IBstimulus_present,blue,left,27004.675
4,44,0,vertical,vertical,null,null,null,3884,null,null,null,null,null,below,IBstimulus_absent,null,null,13756
4,44,1,horizontal,horizontal,null,null,null,2086,null,null,null,null,null,below,IBstimulus_absent,null,null,6911
4,44,2,vertical,vertical,null,null,null,1404,null,null,null,null,null,below,IBstimulus_absent,null,null,4739
4,44,3,horizontal,horizontal,yes,blue,reportColor,1093,6093,4254,8105,4494,4245,below,IBstimulus_present,blue,right,31349
4,45,0,vertical,vertical,null,null,null,4697.395,null,null,null,null,null,above,IBstimulus_absent,null,null,10398
4,45,1,horizontal,horizontal,null,null,null,2480.955,null,null,null,null,null,below,IBstimulus_absent,null,null,6390.555
4,45,2,vertical,vertical,null,null,null,1935.34,null,null,null,null,null,above,IBstimulus_absent,null,null,5269.125
4,45,3,horizontal,horizontal,no,blue,reportColor,1488.405,4990.32,6462.11,5271.425,4957.45,4498.29,below,IBstimulus_absent,null,null,30911.04
4,46,0,horizontal,horizontal,null,null,null,3102.13,null,null,null,null,null,above,IBstimulus_absent,null,null,12854.71
4,46,1,horizontal,horizontal,null,null,null,2846.355,null,null,null,null,null,above,IBstimulus_absent,null,null,8909.81
4,46,2,vertical,vertical,null,null,null,2487.69,null,null,null,null,null,below,IBstimulus_absent,null,null,6391.43
4,46,3,horizontal,horizontal,no,red,reportColor,1967.925,5527.715,9743.645,5384.195,3423.715,4807.78,above,IBstimulus_present,blue,right,34561.935
4,47,0,horizontal,horizontal,null,null,null,1786.29,null,null,null,null,null,above,IBstimulus_absent,null,null,6947.085
4,47,1,vertical,vertical,null,null,null,1489.595,null,null,null,null,null,above,IBstimulus_absent,null,null,12353.48
4,47,2,vertical,vertical,null,null,null,1366.335,null,null,null,null,null,above,IBstimulus_absent,null,null,4924.66
4,47,3,vertical,vertical,no,blue,reportColor,1427.635,4695.66,6519.06,2909.9,2539.61,4560.625,below,IBstimulus_absent,null,null,25984.155
4,48,0,vertical,vertical,null,null,null,2559.25,null,null,null,null,null,above,IBstimulus_absent,null,null,8938.09
4,48,1,horizontal,horizontal,null,null,null,1491.525,null,null,null,null,null,above,IBstimulus_absent,null,null,5444.61
4,48,2,vertical,vertical,null,null,null,1932.53,null,null,null,null,null,below,IBstimulus_absent,null,null,5641.85
4,48,3,horizontal,horizontal,yes,blue,reportColor,2160.065,2884.185,2573.06,5983.065,2827.525,3142.275,above,IBstimulus_present,blue,left,23852.005
4,49,0,vertical,horizontal,null,null,null,5770.87,null,null,null,null,null,above,IBstimulus_absent,null,null,19124.2
4,49,1,horizontal,horizontal,null,null,null,3595.91,null,null,null,null,null,below,IBstimulus_absent,null,null,12059.025
4,49,2,vertical,vertical,null,null,null,2563.335,null,null,null,null,null,above,IBstimulus_absent,null,null,6134.74
4,49,3,horizontal,horizontal,no,blue,reportColor,3242.18,6423.165,8855.63,5839.125,5111.655,7598.99,above,IBstimulus_present,red,left,40085.58
4,50,0,horizontal,horizontal,null,null,null,5230.33,null,null,null,null,null,above,IBstimulus_absent,null,null,17173.81
4,50,1,vertical,vertical,null,null,null,4880.39,null,null,null,null,null,below,IBstimulus_absent,null,null,9748.38
4,50,2,vertical,vertical,null,null,null,2463.945,null,null,null,null,null,below,IBstimulus_absent,null,null,6598.835
4,50,3,horizontal,horizontal,yes,red,reportColor,3703.89,6319.425,9664.125,74727.735,4783.29,11768.035,below,IBstimulus_present,red,right,114512.05
4,51,0,vertical,vertical,null,null,null,3333.66,null,null,null,null,null,above,IBstimulus_absent,null,null,14649.32
4,51,1,vertical,vertical,null,null,null,1667.43,null,null,null,null,null,above,IBstimulus_absent,null,null,6380.875
4,51,2,horizontal,horizontal,null,null,null,1997.49,null,null,null,null,null,below,IBstimulus_absent,null,null,5615.725
4,51,3,vertical,vertical,no,red,reportColor,2654.01,6756.34,8279.24,7994.885,4553.68,4747.525,below,IBstimulus_absent,null,null,37613.2
4,52,0,horizontal,horizontal,null,null,null,5230.33,null,null,null,null,null,above,IBstimulus_absent,null,null,17173.81
4,52,1,vertical,vertical,null,null,null,4880.39,null,null,null,null,null,below,IBstimulus_absent,null,null,9748.38
4,52,2,vertical,vertical,null,null,null,2463.945,null,null,null,null,null,below,IBstimulus_absent,null,null,6598.835
4,52,3,horizontal,horizontal,yes,red,reportColor,3703.89,6319.425,9664.125,74727.735,4783.29,11768.035,below,IBstimulus_present,red,right,114512.05
4,53,0,horizontal,horizontal,null,null,null,2592,null,null,null,null,null,above,IBstimulus_absent,null,null,13820
4,53,1,horizontal,horizontal,null,null,null,1860,null,null,null,null,null,above,IBstimulus_absent,null,null,6114
4,53,2,vertical,vertical,null,null,null,1863,null,null,null,null,null,below,IBstimulus_absent,null,null,5636
4,53,3,vertical,vertical,no,blue,reportColor,1614,6627,9080,4603,2831,3757,above,IBstimulus_absent,null,null,32000
4,54,0,horizontal,horizontal,null,null,null,2944.69,null,null,null,null,null,below,IBstimulus_absent,null,null,9675.97
4,54,1,vertical,vertical,null,null,null,2336.81,null,null,null,null,null,above,IBstimulus_absent,null,null,7132.725
4,54,2,vertical,vertical,null,null,null,1930.545,null,null,null,null,null,above,IBstimulus_absent,null,null,5740.1
4,54,3,horizontal,horizontal,no,blue,reportColor,2131.905,3606.55,10959.005,5469.98,2871.515,3464.635,below,IBstimulus_absent,null,null,33329.78
4,55,0,vertical,vertical,null,null,null,3649.085,null,null,null,null,null,above,IBstimulus_absent,null,null,8877.92
4,55,1,vertical,vertical,null,null,null,2693.9,null,null,null,null,null,below,IBstimulus_absent,null,null,6019.865
4,55,2,horizontal,horizontal,null,null,null,1760.91,null,null,null,null,null,above,IBstimulus_absent,null,null,4503.79
4,55,3,horizontal,horizontal,no,blue,reportColor,4306.71,3910.705,1463.675,3586.825,4848.28,3006.415,below,IBstimulus_present,blue,left,24450.92
4,56,0,horizontal,horizontal,null,null,null,2677.375,null,null,null,null,null,above,IBstimulus_absent,null,null,7606.5
4,56,1,horizontal,horizontal,null,null,null,2347.645001,null,null,null,null,null,above,IBstimulus_absent,null,null,5931.17
4,56,2,vertical,vertical,null,null,null,2162.755,null,null,null,null,null,below,IBstimulus_absent,null,null,5443.185
4,56,3,horizontal,horizontal,no,blue,reportColor,2400.985001,4784.77,5322.935,4733.98,7866.735,14097.5,below,IBstimulus_present,blue,left,42049.93
4,57,0,horizontal,horizontal,null,null,null,3613,null,null,null,null,null,above,IBstimulus_absent,null,null,10992
4,57,1,vertical,vertical,null,null,null,1667,null,null,null,null,null,below,IBstimulus_absent,null,null,5849
4,57,2,vertical,vertical,null,null,null,1504,null,null,null,null,null,above,IBstimulus_absent,null,null,6800
4,57,3,horizontal,horizontal,yes,red,reportColor,1174,3594,3159,3474,3515,3627,above,IBstimulus_present,red,right,24020
4,58,0,vertical,vertical,null,null,null,2481.12,null,null,null,null,null,above,IBstimulus_absent,null,null,11030.51
4,58,1,vertical,vertical,null,null,null,1461.56,null,null,null,null,null,below,IBstimulus_absent,null,null,9828.85
4,58,2,horizontal,horizontal,null,null,null,1954.39,null,null,null,null,null,below,IBstimulus_absent,null,null,5217.08
4,58,3,horizontal,horizontal,yes,red,reportColor,1961.26,2855.87,1511.9,7070.85,2738.59,3952.615,above,IBstimulus_present,red,right,23070.18
4,59,0,vertical,vertical,null,null,null,2388.445,null,null,null,null,null,below,IBstimulus_absent,null,null,13393.05
4,59,1,horizontal,horizontal,null,null,null,2201.255,null,null,null,null,null,below,IBstimulus_absent,null,null,6120.59
4,59,2,horizontal,horizontal,null,null,null,2101.975,null,null,null,null,null,above,IBstimulus_absent,null,null,5360.525
4,59,3,horizontal,horizontal,yes,red,reportColor,1726.385,3975.785,3929.24,3249.36,3303.175,4827.985,below,IBstimulus_present,blue,right,24287.85
4,60,0,horizontal,horizontal,null,null,null,2512.955,null,null,null,null,null,below,IBstimulus_absent,null,null,7188.39
4,60,1,vertical,vertical,null,null,null,1802.24,null,null,null,null,null,above,IBstimulus_absent,null,null,5759.36
4,60,2,vertical,vertical,null,null,null,1504.395,null,null,null,null,null,above,IBstimulus_absent,null,null,4917.165
4,60,3,vertical,vertical,yes,blue,reportColor,1594.05,6295.875,7439.33,6167.865,3175.3,4824.315,below,IBstimulus_present,blue,left,32701.335
4,61,0,horizontal,horizontal,null,null,null,3769.755,null,null,null,null,null,above,IBstimulus_absent,null,null,12089.41
4,61,1,vertical,vertical,null,null,null,2961.805,null,null,null,null,null,below,IBstimulus_absent,null,null,10731.945
4,61,2,horizontal,horizontal,null,null,null,3512.675,null,null,null,null,null,above,IBstimulus_absent,null,null,6779.24
4,61,3,vertical,horizontal,yes,blue,reportColor,3647,3075.425,4730.315,3715.955,3978.035,5500.88,below,IBstimulus_present,blue,right,28177.05
4,62,0,horizontal,horizontal,null,null,null,2071.58,null,null,null,null,null,above,IBstimulus_absent,null,null,9005.33
4,62,1,vertical,vertical,null,null,null,1539.06,null,null,null,null,null,below,IBstimulus_absent,null,null,7504.59
4,62,2,vertical,vertical,null,null,null,1536.965,null,null,null,null,null,below,IBstimulus_absent,null,null,6259.365
4,62,3,horizontal,horizontal,no,blue,reportColor,1346.245,4039.795,6398.355,4656.56,2902.385,5335.845,below,IBstimulus_absent,null,null,28238.97
4,63,0,horizontal,horizontal,null,null,null,3471.86,null,null,null,null,null,below,IBstimulus_absent,null,null,18550.915
4,63,1,vertical,vertical,null,null,null,2785.305,null,null,null,null,null,above,IBstimulus_absent,null,null,11870.46
4,63,2,vertical,vertical,null,null,null,2405.375,null,null,null,null,null,below,IBstimulus_absent,null,null,6912.47
4,63,3,vertical,vertical,yes,blue,reportColor,2164.54,7991.43,21335.77,13577.31,5373.93,6335.66,below,IBstimulus_present,red,left,60345.91
4,64,0,vertical,horizontal,null,null,null,6901.855,null,null,null,null,null,below,IBstimulus_absent,null,null,14032.4
4,64,1,horizontal,horizontal,null,null,null,3638.775,null,null,null,null,null,below,IBstimulus_absent,null,null,9729.985
4,64,2,horizontal,vertical,null,null,null,2740.905,null,null,null,null,null,below,IBstimulus_absent,null,null,9497.97
4,64,3,vertical,vertical,no,red,reportColor,3407.78,4743.255,9332.705,7235.115,4344.485,5965.44,below,IBstimulus_present,blue,left,40173.49
4,65,0,vertical,vertical,null,null,null,2848.8,null,null,null,null,null,above,IBstimulus_absent,null,null,9083.905
4,65,1,horizontal,horizontal,null,null,null,1700.76,null,null,null,null,null,below,IBstimulus_absent,null,null,5949.22
4,65,2,horizontal,horizontal,null,null,null,1494.615,null,null,null,null,null,above,IBstimulus_absent,null,null,4559.075
4,65,3,vertical,vertical,no,blue,reportColor,2494.72,4663.635,8959.755,5599.745,3039.76,5039.77,above,IBstimulus_present,red,left,32516.255
4,66,0,horizontal,horizontal,null,null,null,5661.52,null,null,null,null,null,below,IBstimulus_absent,null,null,11273.695
4,66,1,horizontal,horizontal,null,null,null,3728.38,null,null,null,null,null,above,IBstimulus_absent,null,null,10948.58
4,66,2,horizontal,horizontal,null,null,null,3812.145,null,null,null,null,null,above,IBstimulus_absent,null,null,7647.505
4,66,3,vertical,vertical,yes,red,reportColor,2842.83,6460.34,7366.45,4182.17,4686.71,9453.165,below,IBstimulus_present,blue,right,38450.435
4,67,0,horizontal,horizontal,null,null,null,6258.965,null,null,null,null,null,above,IBstimulus_absent,null,null,23859.32
4,67,1,horizontal,vertical,null,null,null,3864.18,null,null,null,null,null,above,IBstimulus_absent,null,null,9952.67
4,67,2,vertical,horizontal,null,null,null,3731.535,null,null,null,null,null,below,IBstimulus_absent,null,null,9233.845
4,67,3,horizontal,vertical,no,red,reportColor,4732.02,5876.895,13826.92,11992.31,10796.4,13002.875,below,IBstimulus_present,blue,right,64692.495
4,68,0,horizontal,horizontal,null,null,null,1899.905,null,null,null,null,null,below,IBstimulus_absent,null,null,7356.08
4,68,1,horizontal,horizontal,null,null,null,2179.12,null,null,null,null,null,above,IBstimulus_absent,null,null,6946.76
4,68,2,vertical,vertical,null,null,null,1913.225,null,null,null,null,null,below,IBstimulus_absent,null,null,5489.545
4,68,3,horizontal,horizontal,no,blue,reportColor,1634.88,6143.84,5405.245,4065.615,8152.145,4542.565,above,IBstimulus_absent,null,null,33085.05
4,69,0,vertical,vertical,null,null,null,5208.775,null,null,null,null,null,above,IBstimulus_absent,null,null,11461.215
4,69,1,vertical,vertical,null,null,null,1585.305,null,null,null,null,null,above,IBstimulus_absent,null,null,5694.855
4,69,2,vertical,vertical,null,null,null,1514.39,null,null,null,null,null,below,IBstimulus_absent,null,null,4282.36
4,69,3,horizontal,horizontal,yes,blue,reportColor,1176.59,5461.89,4313.75,13101.795,3396.895,5726.88,below,IBstimulus_present,blue,right,35971.105
4,70,0,vertical,vertical,null,null,null,4428.8,null,null,null,null,null,above,IBstimulus_absent,null,null,9642.37
4,70,1,vertical,vertical,null,null,null,2094.97,null,null,null,null,null,below,IBstimulus_absent,null,null,10028.55
4,70,2,horizontal,horizontal,null,null,null,3553.68,null,null,null,null,null,below,IBstimulus_absent,null,null,6939.94
4,70,3,horizontal,horizontal,yes,blue,reportColor,3289.365,3665.2,4586.42,4286.505,3291.365,4398.3,below,IBstimulus_present,blue,left,26674.605
4,71,0,vertical,vertical,null,null,null,4958.515,null,null,null,null,null,above,IBstimulus_absent,null,null,13723.72
4,71,1,horizontal,horizontal,null,null,null,3449.74,null,null,null,null,null,below,IBstimulus_absent,null,null,7621.015
4,71,2,horizontal,vertical,null,null,null,3018.79,null,null,null,null,null,below,IBstimulus_absent,null,null,49048.78
4,71,3,horizontal,vertical,no,blue,reportColor,2245.915,6025.835,9395.23,6350.21,7663.265,20790.19,below,IBstimulus_absent,null,null,55495.755
4,72,0,vertical,vertical,null,null,null,5275.29,null,null,null,null,null,below,IBstimulus_absent,null,null,11782.38
4,72,1,horizontal,horizontal,null,null,null,3117.665,null,null,null,null,null,above,IBstimulus_absent,null,null,10304.705
4,72,2,vertical,vertical,null,null,null,3766.88,null,null,null,null,null,above,IBstimulus_absent,null,null,7210.93
4,72,3,vertical,vertical,no,blue,reportColor,2613.535,3429.59,6589.685,5182.46,3382.86,4726.345,below,IBstimulus_absent,null,null,29779.755
4,73,0,vertical,vertical,null,null,null,6877,null,null,null,null,null,below,IBstimulus_absent,null,null,11606
4,73,1,horizontal,horizontal,null,null,null,2367,null,null,null,null,null,above,IBstimulus_absent,null,null,9761
4,73,2,vertical,vertical,null,null,null,1856,null,null,null,null,null,below,IBstimulus_absent,null,null,4822
4,73,3,horizontal,horizontal,yes,red,reportColor,5115,3429,2285,4465,3046,4338,below,IBstimulus_present,red,right,25439
4,74,0,vertical,horizontal,null,null,null,1966,null,null,null,null,null,above,IBstimulus_absent,null,null,12298
4,74,1,horizontal,vertical,null,null,null,1604,null,null,null,null,null,above,IBstimulus_absent,null,null,7312
4,74,2,horizontal,horizontal,null,null,null,1608,null,null,null,null,null,above,IBstimulus_absent,null,null,5646
4,74,3,vertical,vertical,no,blue,reportColor,1188,3688,5652,5216,3381,4292,below,IBstimulus_absent,null,null,26094
4,75,0,horizontal,horizontal,null,null,null,4827,null,null,null,null,null,above,IBstimulus_absent,null,null,11293.795
4,75,1,horizontal,horizontal,null,null,null,3723.02,null,null,null,null,null,above,IBstimulus_absent,null,null,7859.73
4,75,2,vertical,vertical,null,null,null,2686.805,null,null,null,null,null,below,IBstimulus_absent,null,null,5886.47
4,75,3,horizontal,horizontal,yes,red,reportColor,2576.815,3791.23,1951.35,8767.465,4544.795,6447.54,above,IBstimulus_present,red,left,31234.065
4,76,0,vertical,vertical,null,null,null,8490.6,null,null,null,null,null,below,IBstimulus_absent,null,null,14575.415
4,76,1,vertical,vertical,null,null,null,2994.845,null,null,null,null,null,below,IBstimulus_absent,null,null,7078.385
4,76,2,horizontal,horizontal,null,null,null,1995.75,null,null,null,null,null,above,IBstimulus_absent,null,null,6181.085
4,76,3,horizontal,horizontal,no,blue,reportColor,2318.195,7253.835,10323.475,8319.61,3411.88,5939.52,above,IBstimulus_absent,null,null,41547.175
4,77,0,vertical,vertical,null,null,null,1543,null,null,null,null,null,above,IBstimulus_absent,null,null,4978
4,77,1,horizontal,horizontal,null,null,null,1098,null,null,null,null,null,above,IBstimulus_absent,null,null,3765
4,77,2,vertical,vertical,null,null,null,1191,null,null,null,null,null,above,IBstimulus_absent,null,null,3842
4,77,3,vertical,vertical,no,red,reportColor,885,3391,2654,1839,4117,3925,above,IBstimulus_absent,null,null,19639
4,78,0,vertical,vertical,null,null,null,7517,null,null,null,null,null,above,IBstimulus_absent,null,null,19797
4,78,1,horizontal,horizontal,null,null,null,3044,null,null,null,null,null,below,IBstimulus_absent,null,null,9475
4,78,2,horizontal,horizontal,null,null,null,3112,null,null,null,null,null,above,IBstimulus_absent,null,null,9545
4,78,3,horizontal,horizontal,no,blue,reportColor,2774,13965,9464,6597,5133,10357,below,IBstimulus_present,red,left,52800
4,79,0,vertical,vertical,null,null,null,5022.92,null,null,null,null,null,below,IBstimulus_absent,null,null,14077.765
4,79,1,vertical,vertical,null,null,null,2509.03,null,null,null,null,null,below,IBstimulus_absent,null,null,9861.22
4,79,2,vertical,vertical,null,null,null,1937.12,null,null,null,null,null,above,IBstimulus_absent,null,null,5399.245
4,79,3,horizontal,horizontal,yes,red,reportColor,2022.39,4591.93,7415.605,11015.485,4727.52,4920.095,below,IBstimulus_present,red,right,37928.795
4,80,0,horizontal,horizontal,null,null,null,5171.745,null,null,null,null,null,below,IBstimulus_absent,null,null,15116.525
4,80,1,vertical,vertical,null,null,null,3710.405,null,null,null,null,null,above,IBstimulus_absent,null,null,8215.82
4,80,2,horizontal,horizontal,null,null,null,2471.67,null,null,null,null,null,above,IBstimulus_absent,null,null,6324.73
4,80,3,horizontal,horizontal,no,blue,reportColor,3698.125,25470.29,14477.365,6892.765,4386.59,6332.365,below,IBstimulus_absent,null,null,64860.58
4,81,0,vertical,vertical,null,null,null,3246.6,null,null,null,null,null,above,IBstimulus_absent,null,null,79112.6
4,81,1,horizontal,horizontal,null,null,null,2436.5,null,null,null,null,null,above,IBstimulus_absent,null,null,12062.3
4,81,2,vertical,vertical,null,null,null,2950.1,null,null,null,null,null,above,IBstimulus_absent,null,null,6405.2
4,81,3,vertical,vertical,no,blue,reportColor,1968.3,5929.8,9029.6,9166.5,6433,10473.9,above,IBstimulus_absent,null,null,46602.2
4,82,0,vertical,vertical,null,null,null,9198.935,null,null,null,null,null,above,IBstimulus_absent,null,null,24610.095
4,82,1,horizontal,horizontal,null,null,null,3973.09,null,null,null,null,null,above,IBstimulus_absent,null,null,13321.91
4,82,2,vertical,vertical,null,null,null,5231.515,null,null,null,null,null,below,IBstimulus_absent,null,null,12172.435
4,82,3,vertical,vertical,no,blue,reportColor,4256.27,12126.655,15822.51,8938.51,6319.41,10632.89,above,IBstimulus_present,red,right,64065.31
4,83,0,horizontal,horizontal,null,null,null,3271.9,null,null,null,null,null,above,IBstimulus_absent,null,null,25497.5
4,83,1,horizontal,horizontal,null,null,null,2388.41,null,null,null,null,null,above,IBstimulus_absent,null,null,7344.125
4,83,2,vertical,vertical,null,null,null,2002.295,null,null,null,null,null,below,IBstimulus_absent,null,null,5777.04
4,83,3,horizontal,horizontal,no,blue,reportColor,2351.81,8340.175,11109.28,5531.995,6951.16,6588.9,above,IBstimulus_absent,null,null,44662.185
4,84,0,horizontal,horizontal,null,null,null,4458.225,null,null,null,null,null,below,IBstimulus_absent,null,null,13231.275
4,84,1,vertical,vertical,null,null,null,2328.91,null,null,null,null,null,below,IBstimulus_absent,null,null,7158.36
4,84,2,horizontal,horizontal,null,null,null,2128.075,null,null,null,null,null,below,IBstimulus_absent,null,null,4957.64
4,84,3,horizontal,horizontal,yes,blue,reportColor,3097.815,15762.085,12208.61,13585.66,4412.05,6172.92,above,IBstimulus_present,blue,left,58878.565
4,85,0,vertical,vertical,null,null,null,3759.855,null,null,null,null,null,above,IBstimulus_absent,null,null,14366.245
4,85,1,horizontal,horizontal,null,null,null,4283.91,null,null,null,null,null,above,IBstimulus_absent,null,null,12365.515
4,85,2,horizontal,horizontal,null,null,null,3422.035,null,null,null,null,null,above,IBstimulus_absent,null,null,8945.655
4,85,3,vertical,vertical,yes,blue,reportColor,1969.095,5401.485,9043.735,8033.1,3889.615,7579.555,below,IBstimulus_present,blue,right,41621.57
4,86,0,horizontal,vertical,null,null,null,3786.4,null,null,null,null,null,below,IBstimulus_absent,null,null,10430.35
4,86,1,vertical,vertical,null,null,null,2548.075,null,null,null,null,null,below,IBstimulus_absent,null,null,7059.015
4,86,2,horizontal,horizontal,null,null,null,1881.13,null,null,null,null,null,below,IBstimulus_absent,null,null,5699.1
4,86,3,vertical,vertical,no,red,reportColor,1764.51,5690.83,9051.585,5769.38,3553.975,3926.8,above,IBstimulus_present,blue,right,33048.665
4,87,0,vertical,horizontal,null,null,null,4527,null,null,null,null,null,below,IBstimulus_absent,null,null,26953
4,87,1,vertical,vertical,null,null,null,3339,null,null,null,null,null,below,IBstimulus_absent,null,null,12081
4,87,2,horizontal,horizontal,null,null,null,2883,null,null,null,null,null,below,IBstimulus_absent,null,null,6345
4,87,3,horizontal,horizontal,yes,blue,reportColor,3325,16594,21712,7965,4545,10721,below,IBstimulus_absent,null,null,68823
4,88,0,horizontal,horizontal,null,null,null,6002.145,null,null,null,null,null,below,IBstimulus_absent,null,null,19478.53
4,88,1,vertical,vertical,null,null,null,2952.84,null,null,null,null,null,below,IBstimulus_absent,null,null,7147.125
4,88,2,horizontal,horizontal,null,null,null,4671.32,null,null,null,null,null,below,IBstimulus_absent,null,null,8784.52
4,88,3,vertical,vertical,no,blue,reportColor,3136.18,7624.94,11536.635,5919.56,4697.215,5712.12,below,IBstimulus_present,red,left,41959.495
4,89,0,vertical,vertical,null,null,null,2534.43,null,null,null,null,null,below,IBstimulus_absent,null,null,9212.535
4,89,1,vertical,horizontal,null,null,null,2660.82,null,null,null,null,null,above,IBstimulus_absent,null,null,10018.63
4,89,2,vertical,vertical,null,null,null,1668.785,null,null,null,null,null,below,IBstimulus_absent,null,null,5483.01
4,89,3,horizontal,horizontal,no,blue,reportColor,1923.135,3890.3,8212.495,8590.875,3447.69,4581.21,above,IBstimulus_present,red,right,34176.715
4,90,0,vertical,vertical,null,null,null,2842.515,null,null,null,null,null,above,IBstimulus_absent,null,null,12438.485
4,90,1,horizontal,horizontal,null,null,null,2122.5,null,null,null,null,null,above,IBstimulus_absent,null,null,6677.41
4,90,2,horizontal,horizontal,null,null,null,1915.775,null,null,null,null,null,below,IBstimulus_absent,null,null,6559.665
4,90,3,horizontal,horizontal,yes,red,reportColor,1626.735,2815.975,3919.675,4560.155,3303.18,5039.875,below,IBstimulus_present,red,right,28167.18
4,91,0,horizontal,vertical,null,null,null,4495,null,null,null,null,null,above,IBstimulus_absent,null,null,17761
4,91,1,horizontal,horizontal,null,null,null,2357,null,null,null,null,null,above,IBstimulus_absent,null,null,8873
4,91,2,horizontal,horizontal,null,null,null,2313,null,null,null,null,null,above,IBstimulus_absent,null,null,15652
4,91,3,horizontal,horizontal,yes,red,reportColor,2199,3939,7779,10299,3853,7145,below,IBstimulus_present,red,left,40358
4,92,0,vertical,vertical,null,null,null,8295,null,null,null,null,null,below,IBstimulus_absent,null,null,18767
4,92,1,vertical,vertical,null,null,null,2121,null,null,null,null,null,below,IBstimulus_absent,null,null,6559
4,92,2,horizontal,horizontal,null,null,null,2369,null,null,null,null,null,below,IBstimulus_absent,null,null,5848
4,92,3,vertical,vertical,no,red,reportColor,3321,4151,7848,4486,4455,5408,below,IBstimulus_absent,null,null,33080
4,93,0,horizontal,horizontal,null,null,null,3553.655,null,null,null,null,null,below,IBstimulus_absent,null,null,13013.335
4,93,1,vertical,vertical,null,null,null,2429.555,null,null,null,null,null,below,IBstimulus_absent,null,null,6176.23
4,93,2,horizontal,horizontal,null,null,null,1825.445,null,null,null,null,null,below,IBstimulus_absent,null,null,10871.08
4,93,3,vertical,vertical,yes,blue,reportColor,1881.245,5409.215,3808.01,6591.195,3120.115,5114.645,below,IBstimulus_present,blue,right,32633.605
4,94,0,vertical,vertical,null,null,null,4392.055,null,null,null,null,null,below,IBstimulus_absent,null,null,9896.45
4,94,1,vertical,vertical,null,null,null,2304.895,null,null,null,null,null,above,IBstimulus_absent,null,null,6774.895
4,94,2,vertical,vertical,null,null,null,2170.69,null,null,null,null,null,below,IBstimulus_absent,null,null,6538.035
4,94,3,horizontal,horizontal,no,blue,reportColor,2098.51,3605.18,9659.235,4877.355,3863.105,4813.475,above,IBstimulus_present,red,left,33647.295
4,95,0,horizontal,horizontal,null,null,null,2884.52,null,null,null,null,null,above,IBstimulus_absent,null,null,12829.775
4,95,1,horizontal,horizontal,null,null,null,3246.28,null,null,null,null,null,below,IBstimulus_absent,null,null,10700.87
4,95,2,vertical,vertical,null,null,null,3328.075,null,null,null,null,null,above,IBstimulus_absent,null,null,9038.92
4,95,3,horizontal,horizontal,no,blue,reportColor,2139.62,4537.025,10990.89,6774.725,4132.605,6584.065,below,IBstimulus_absent,null,null,44008.54
4,96,0,vertical,horizontal,null,null,null,13656.795,null,null,null,null,null,below,IBstimulus_absent,null,null,24506.805
4,96,1,horizontal,horizontal,null,null,null,164783.21,null,null,null,null,null,above,IBstimulus_absent,null,null,170242.785
4,96,2,vertical,vertical,null,null,null,3461.595,null,null,null,null,null,above,IBstimulus_absent,null,null,7310.24
4,96,3,vertical,vertical,yes,blue,reportColor,3326.75,2521.07,98681.355,12286.875,4466.285,5863.985,below,IBstimulus_present,blue,right,130829.16
4,97,0,vertical,vertical,null,null,null,5071.19,null,null,null,null,null,below,IBstimulus_absent,null,null,10321.785
4,97,1,horizontal,horizontal,null,null,null,2788.28,null,null,null,null,null,below,IBstimulus_absent,null,null,7613.46
4,97,2,vertical,vertical,null,null,null,3356.02,null,null,null,null,null,above,IBstimulus_absent,null,null,8221.365
4,97,3,vertical,vertical,no,blue,reportColor,2581.48,3301.005,6253.01,4259.88,4021.52,5876.705,below,IBstimulus_present,red,right,29573.6
4,98,0,horizontal,horizontal,null,null,null,8624.53,null,null,null,null,null,above,IBstimulus_absent,null,null,18968.24
4,98,1,horizontal,horizontal,null,null,null,2906.795,null,null,null,null,null,below,IBstimulus_absent,null,null,24838.265
4,98,2,horizontal,horizontal,null,null,null,2330.215,null,null,null,null,null,below,IBstimulus_absent,null,null,5172.57
4,98,3,horizontal,horizontal,yes,blue,reportColor,4748.79,5948.225,16781.115,7166.905,3840.07,5456.695,below,IBstimulus_present,blue,left,46844.325
4,99,0,vertical,vertical,null,null,null,3168.995,null,null,null,null,null,above,IBstimulus_absent,null,null,11117.34
4,99,1,horizontal,horizontal,null,null,null,4952.275,null,null,null,null,null,below,IBstimulus_absent,null,null,9268.2
4,99,2,horizontal,horizontal,null,null,null,2519.28,null,null,null,null,null,below,IBstimulus_absent,null,null,5686.935
4,99,3,horizontal,horizontal,yes,red,reportColor,3659.04,4145.99,6058.11,8738.9,4927.06,5806.98,above,IBstimulus_present,red,left,40918.1
4,100,0,horizontal,horizontal,null,null,null,3308.34,null,null,null,null,null,above,IBstimulus_absent,null,null,11089.465
4,100,1,vertical,vertical,null,null,null,1548.42,null,null,null,null,null,above,IBstimulus_absent,null,null,6995.155
4,100,2,horizontal,horizontal,null,null,null,1950.41,null,null,null,null,null,below,IBstimulus_absent,null,null,7511.395
4,100,3,horizontal,horizontal,yes,blue,reportColor,6309.465,3076.995,6089.765,4023.49,2351.135,3863.185,below,IBstimulus_present,blue,left,35746.835
4,101,0,vertical,vertical,null,null,null,6473,null,null,null,null,null,above,IBstimulus_absent,null,null,22072
4,101,1,horizontal,horizontal,null,null,null,2973,null,null,null,null,null,above,IBstimulus_absent,null,null,7622
4,101,2,horizontal,horizontal,null,null,null,3115,null,null,null,null,null,above,IBstimulus_absent,null,null,7797
4,101,3,vertical,vertical,no,blue,reportColor,2744,8264,12415,8242,4418,5563,above,IBstimulus_present,blue,right,47037
4,102,0,vertical,null,null,null,null,null,null,null,null,null,null,below,IBstimulus_absent,null,null,
4,102,1,horizontal,null,null,null,null,null,null,null,null,null,null,below,IBstimulus_absent,null,null,
4,102,2,horizontal,null,null,null,null,null,null,null,null,null,null,above,IBstimulus_absent,null,null,
4,102,3,horizontal,null,null,null,reportColor,null,null,null,null,null,null,below,IBstimulus_present,red,left,
4,103,0,horizontal,horizontal,null,null,null,4646.6,null,null,null,null,null,below,IBstimulus_absent,null,null,10671.86
4,103,1,horizontal,horizontal,null,null,null,2094.52,null,null,null,null,null,above,IBstimulus_absent,null,null,9204.67
4,103,2,vertical,vertical,null,null,null,1601.415,null,null,null,null,null,above,IBstimulus_absent,null,null,5453.975
4,103,3,vertical,vertical,no,red,reportColor,1241.555,5169.295,14306.87,5401.45,3721.43,12760.63,above,IBstimulus_absent,null,null,45864.59
4,104,0,vertical,vertical,null,null,null,2512.005,null,null,null,null,null,above,IBstimulus_absent,null,null,8219.55
4,104,1,vertical,vertical,null,null,null,1667.295,null,null,null,null,null,above,IBstimulus_absent,null,null,9729.445
4,104,2,vertical,vertical,null,null,null,1795.365,null,null,null,null,null,below,IBstimulus_absent,null,null,5057.575
4,104,3,vertical,vertical,yes,blue,reportColor,1342.13,3611.59,4020.285,12936.27,3486.32,6453.135,below,IBstimulus_present,blue,left,35001.475
4,105,0,vertical,vertical,null,null,null,3169.615,null,null,null,null,null,above,IBstimulus_absent,null,null,12034.285
4,105,1,vertical,vertical,null,null,null,1965.25,null,null,null,null,null,above,IBstimulus_absent,null,null,7179.865
4,105,2,horizontal,horizontal,null,null,null,1911.14,null,null,null,null,null,below,IBstimulus_absent,null,null,9181.44
4,105,3,vertical,vertical,no,red,reportColor,2304.515,7242.31,14729.795,12246.545,4824.51,5030.95,above,IBstimulus_present,blue,right,52525.605
4,106,0,vertical,horizontal,null,null,null,10242.645,null,null,null,null,null,below,IBstimulus_absent,null,null,23407.175
4,106,1,horizontal,horizontal,null,null,null,6319.88,null,null,null,null,null,below,IBstimulus_absent,null,null,11471.415
4,106,2,horizontal,horizontal,null,null,null,4832.625,null,null,null,null,null,above,IBstimulus_absent,null,null,14028.02
4,106,3,horizontal,horizontal,no,red,reportColor,3920.815,7199.035,12384.805,11876.305,6207.925,7509.16,above,IBstimulus_present,red,left,53709.345
4,107,0,horizontal,horizontal,null,null,null,5393.165,null,null,null,null,null,above,IBstimulus_absent,null,null,21414.96
4,107,1,horizontal,horizontal,null,null,null,2192.27,null,null,null,null,null,below,IBstimulus_absent,null,null,10882.56
4,107,2,horizontal,horizontal,null,null,null,2046.065,null,null,null,null,null,above,IBstimulus_absent,null,null,7969.66
4,107,3,vertical,vertical,no,blue,reportColor,2346.76,5103.08,10216.38,5483.99,3060.065,4989.01,above,IBstimulus_absent,null,null,36543.46
4,108,0,vertical,horizontal,null,null,null,5782.67,null,null,null,null,null,above,IBstimulus_absent,null,null,11976.95
4,108,1,horizontal,horizontal,null,null,null,2349.48,null,null,null,null,null,above,IBstimulus_absent,null,null,6640.44
4,108,2,vertical,vertical,null,null,null,1863.63,null,null,null,null,null,below,IBstimulus_absent,null,null,5268.05
4,108,3,vertical,vertical,no,blue,reportColor,1724.715,5058.51,7389.435,5096,4455.34,8119.555,above,IBstimulus_present,blue,right,35716.305
4,109,0,vertical,horizontal,null,null,null,2043.56,null,null,null,null,null,above,IBstimulus_absent,null,null,10201.255
4,109,1,vertical,horizontal,null,null,null,1309.89,null,null,null,null,null,above,IBstimulus_absent,null,null,5794.92
4,109,2,vertical,horizontal,null,null,null,1331.77,null,null,null,null,null,below,IBstimulus_absent,null,null,5934.07
4,109,3,vertical,vertical,yes,blue,reportColor,2970.59,2913.08,4229.7,3371.02,2228.77,4025.815,above,IBstimulus_present,blue,left,26368.1
4,110,0,horizontal,horizontal,null,null,null,3377.24,null,null,null,null,null,above,IBstimulus_absent,null,null,13043.155
4,110,1,vertical,vertical,null,null,null,3620.965,null,null,null,null,null,above,IBstimulus_absent,null,null,8763.935
4,110,2,horizontal,horizontal,null,null,null,3254.025,null,null,null,null,null,above,IBstimulus_absent,null,null,8156.8
4,110,3,vertical,vertical,yes,red,reportColor,3375.97,6847.36,12691.7,9782.785,4963.79,5860.16,below,IBstimulus_absent,null,null,47959.97
4,111,0,vertical,vertical,null,null,null,3630.815,null,null,null,null,null,below,IBstimulus_absent,null,null,9897.35
4,111,1,horizontal,horizontal,null,null,null,2866.6,null,null,null,null,null,below,IBstimulus_absent,null,null,6850.73
4,111,2,vertical,vertical,null,null,null,4824.72,null,null,null,null,null,above,IBstimulus_absent,null,null,8273.29
4,111,3,horizontal,vertical,yes,blue,reportColor,4003.61,3116.5,5014.81,6808.975,2897.695,5924.32,above,IBstimulus_present,blue,left,31058.045
4,112,0,horizontal,horizontal,null,null,null,6001,null,null,null,null,null,above,IBstimulus_absent,null,null,17283
4,112,1,horizontal,horizontal,null,null,null,2477,null,null,null,null,null,below,IBstimulus_absent,null,null,8965
4,112,2,horizontal,vertical,null,null,null,2239,null,null,null,null,null,above,IBstimulus_absent,null,null,6900
4,112,3,horizontal,vertical,yes,red,reportColor,4527,4628,3328,7877,3860,4757,above,IBstimulus_present,red,right,33321
4,113,0,horizontal,horizontal,null,null,null,2407.205,null,null,null,null,null,above,IBstimulus_absent,null,null,7337.03
4,113,1,vertical,vertical,null,null,null,1916.505,null,null,null,null,null,below,IBstimulus_absent,null,null,5237.3
4,113,2,horizontal,horizontal,null,null,null,1552.285,null,null,null,null,null,below,IBstimulus_absent,null,null,4801.39
4,113,3,vertical,vertical,no,red,reportColor,1547.77,3611.37,5895.08,2852.79,3410.395,5917.255,below,IBstimulus_absent,null,null,26168.695
4,114,0,vertical,vertical,null,null,null,3003.455,null,null,null,null,null,below,IBstimulus_absent,null,null,9442.735
4,114,1,vertical,vertical,null,null,null,1984.09,null,null,null,null,null,below,IBstimulus_absent,null,null,6007.865
4,114,2,horizontal,horizontal,null,null,null,2733.01,null,null,null,null,null,above,IBstimulus_absent,null,null,6780.19
4,114,3,vertical,vertical,no,blue,reportColor,2642.1,4871.09,6891.83,4189.69,4054.68,3591.2,above,IBstimulus_absent,null,null,29309.08
4,115,0,horizontal,vertical,null,null,null,8085.5,null,null,null,null,null,above,IBstimulus_absent,null,null,16393.425
4,115,1,horizontal,horizontal,null,null,null,3799.88,null,null,null,null,null,below,IBstimulus_absent,null,null,7976.47
4,115,2,vertical,vertical,null,null,null,2645.1,null,null,null,null,null,below,IBstimulus_absent,null,null,7445.43
4,115,3,horizontal,horizontal,yes,blue,reportColor,4083.74,5700.8,2064.48,8267.925,4752.82,10588.35,below,IBstimulus_present,blue,right,39284.475
4,116,0,horizontal,horizontal,null,null,null,3162.81,null,null,null,null,null,below,IBstimulus_absent,null,null,10489.13
4,116,1,horizontal,vertical,null,null,null,2555.84,null,null,null,null,null,above,IBstimulus_absent,null,null,9290.995
4,116,2,vertical,vertical,null,null,null,1411.42,null,null,null,null,null,below,IBstimulus_absent,null,null,5453.98
4,116,3,vertical,vertical,yes,blue,reportColor,1797.62,4511.86,3623.82,5463.58,3351.48,6647.46,above,IBstimulus_present,blue,left,28737.08
4,117,0,vertical,vertical,null,null,null,4205.48,null,null,null,null,null,below,IBstimulus_absent,null,null,9952.59
4,117,1,horizontal,horizontal,null,null,null,3457.76,null,null,null,null,null,above,IBstimulus_absent,null,null,8598.25
4,117,2,vertical,vertical,null,null,null,3840.335,null,null,null,null,null,above,IBstimulus_absent,null,null,7596.015
4,117,3,horizontal,vertical,no,blue,reportColor,4667.895,7307.29,9629.4,5284.355,3526.695,4668.69,below,IBstimulus_present,blue,left,38769.345
4,118,0,horizontal,horizontal,null,null,null,5763.905,null,null,null,null,null,below,IBstimulus_absent,null,null,13848.965
4,118,1,horizontal,horizontal,null,null,null,4980.825,null,null,null,null,null,above,IBstimulus_absent,null,null,15292.6
4,118,2,horizontal,horizontal,null,null,null,5332.98,null,null,null,null,null,below,IBstimulus_absent,null,null,12250.855
4,118,3,vertical,vertical,no,red,reportColor,3608.925,15635.04,24075.495,16039.505,5887.675,6908.87,below,IBstimulus_absent,null,null,77189.05
4,119,0,horizontal,horizontal,null,null,null,4186,null,null,null,null,null,above,IBstimulus_absent,null,null,11762
4,119,1,horizontal,horizontal,null,null,null,3870,null,null,null,null,null,above,IBstimulus_absent,null,null,8209
4,119,2,horizontal,horizontal,null,null,null,2990,null,null,null,null,null,above,IBstimulus_absent,null,null,5884
4,119,3,vertical,vertical,yes,blue,reportColor,2793,5573,6781,5818,3682,4052,below,IBstimulus_present,blue,left,31836
4,120,0,horizontal,horizontal,null,null,null,4115,null,null,null,null,null,above,IBstimulus_absent,null,null,16364
4,120,1,horizontal,horizontal,null,null,null,3238,null,null,null,null,null,above,IBstimulus_absent,null,null,9028
4,120,2,horizontal,horizontal,null,null,null,2462,null,null,null,null,null,above,IBstimulus_absent,null,null,7063
4,120,3,vertical,vertical,no,blue,reportColor,2435,5496,8743,9511,5201,5520,below,IBstimulus_absent,null,null,63159
4,121,0,vertical,vertical,null,null,null,3740.45,null,null,null,null,null,below,IBstimulus_absent,null,null,10767.045
4,121,1,horizontal,horizontal,null,null,null,2215.475,null,null,null,null,null,above,IBstimulus_absent,null,null,7472.295
4,121,2,vertical,vertical,null,null,null,2639.49,null,null,null,null,null,above,IBstimulus_absent,null,null,6735.955
4,121,3,horizontal,horizontal,yes,blue,reportColor,3955.985,3615.82,7464.32,7005.595,4134.68,5596.285,above,IBstimulus_present,blue,left,35416.93
4,122,0,horizontal,horizontal,null,null,null,1480.995,null,null,null,null,null,above,IBstimulus_absent,null,null,6734.87
4,122,1,horizontal,horizontal,null,null,null,2035.185,null,null,null,null,null,above,IBstimulus_absent,null,null,6039.68
4,122,2,vertical,vertical,null,null,null,1217.88,null,null,null,null,null,below,IBstimulus_absent,null,null,4670.735
4,122,3,horizontal,horizontal,yes,red,reportColor,1653.995,3945.595,2197.635,3419.815,2607.55,2985.64,above,IBstimulus_present,red,right,20151.935
4,123,0,horizontal,horizontal,null,null,null,5750.695,null,null,null,null,null,below,IBstimulus_absent,null,null,12572.795
4,123,1,horizontal,horizontal,null,null,null,3298.405,null,null,null,null,null,above,IBstimulus_absent,null,null,8131.135
4,123,2,horizontal,vertical,null,null,null,3730.495,null,null,null,null,null,below,IBstimulus_absent,null,null,7295.96
4,123,3,vertical,vertical,yes,red,reportColor,3289.37,11736.975,15579.25,4854.865,5705.03,7808.8,above,IBstimulus_present,blue,right,52691.155
4,124,0,horizontal,horizontal,null,null,null,2961.035,null,null,null,null,null,above,IBstimulus_absent,null,null,9389.105
4,124,1,horizontal,horizontal,null,null,null,2588.5,null,null,null,null,null,above,IBstimulus_absent,null,null,6385.67
4,124,2,vertical,vertical,null,null,null,1652.325,null,null,null,null,null,above,IBstimulus_absent,null,null,4811.93
4,124,3,vertical,vertical,no,blue,reportColor,2528.85,5087.19,9503.665,7842.93,4861.15,6195.98,below,IBstimulus_absent,null,null,40425.535
4,125,0,vertical,vertical,null,null,null,2351.245,null,null,null,null,null,below,IBstimulus_absent,null,null,8005.315
4,125,1,horizontal,horizontal,null,null,null,2073.96,null,null,null,null,null,below,IBstimulus_absent,null,null,8878.88
4,125,2,horizontal,horizontal,null,null,null,2489.73,null,null,null,null,null,above,IBstimulus_absent,null,null,5185.425
4,125,3,horizontal,horizontal,yes,blue,reportColor,4563.925,3155.255,3635.055,7557.685,3585.415,4501.17,above,IBstimulus_present,blue,right,29585.285
4,126,0,horizontal,vertical,null,null,null,8085.5,null,null,null,null,null,above,IBstimulus_absent,null,null,16393.425
4,126,1,horizontal,horizontal,null,null,null,3799.88,null,null,null,null,null,below,IBstimulus_absent,null,null,7976.47
4,126,2,vertical,vertical,null,null,null,2645.1,null,null,null,null,null,below,IBstimulus_absent,null,null,7445.43
4,126,3,horizontal,horizontal,yes,blue,reportColor,4083.74,5700.8,2064.48,8267.925,4752.82,10588.35,below,IBstimulus_present,blue,right,39284.475
4,127,0,vertical,vertical,null,null,null,4749.72,null,null,null,null,null,above,IBstimulus_absent,null,null,12558.19
4,127,1,horizontal,horizontal,null,null,null,2267.07,null,null,null,null,null,above,IBstimulus_absent,null,null,8044.685
4,127,2,horizontal,horizontal,null,null,null,1878.58,null,null,null,null,null,above,IBstimulus_absent,null,null,8275.425
4,127,3,vertical,vertical,no,red,reportColor,2289.335,6773.76,10071.715,10352.66,4822.495,14851.905,above,IBstimulus_present,red,right,52765.185
4,128,0,vertical,vertical,null,null,null,4543.585,null,null,null,null,null,above,IBstimulus_absent,null,null,9162.005
4,128,1,vertical,vertical,null,null,null,1953.55,null,null,null,null,null,above,IBstimulus_absent,null,null,5870.155
4,128,2,horizontal,horizontal,null,null,null,1803.71,null,null,null,null,null,below,IBstimulus_absent,null,null,5258.7
4,128,3,vertical,vertical,no,blue,reportColor,1694.79,4741.885,6805.58,4133.02,3393.49,3913.3,below,IBstimulus_absent,null,null,27984.455
4,129,0,horizontal,horizontal,null,null,null,4320,null,null,null,null,null,above,IBstimulus_absent,null,null,28698
4,129,1,vertical,vertical,null,null,null,1970,null,null,null,null,null,below,IBstimulus_absent,null,null,5976
4,129,2,vertical,vertical,null,null,null,1853,null,null,null,null,null,above,IBstimulus_absent,null,null,6372
4,129,3,horizontal,horizontal,no,blue,reportColor,1348,10167,4868,5173,4056,4614,below,IBstimulus_absent,null,null,34155
4,130,0,horizontal,horizontal,null,null,null,12615,null,null,null,null,null,above,IBstimulus_absent,null,null,27716
4,130,1,vertical,vertical,null,null,null,3677,null,null,null,null,null,below,IBstimulus_absent,null,null,13133
4,130,2,horizontal,horizontal,null,null,null,2160,null,null,null,null,null,below,IBstimulus_absent,null,null,7970
4,130,3,horizontal,horizontal,no,blue,reportColor,1919,11924,28788,13201,7422,10774,below,IBstimulus_present,red,right,78425
4,131,0,vertical,vertical,null,null,null,7459.68,null,null,null,null,null,above,IBstimulus_absent,null,null,16933.55
4,131,1,horizontal,horizontal,null,null,null,28839.67,null,null,null,null,null,below,IBstimulus_absent,null,null,32733.165
4,131,2,vertical,vertical,null,null,null,4387.63,null,null,null,null,null,below,IBstimulus_absent,null,null,10150.095
4,131,3,horizontal,horizontal,no,blue,reportColor,6009.25,6690,11291.645,12375.705,3418.545,14000.41,below,IBstimulus_absent,null,null,56737.98
4,132,0,horizontal,horizontal,null,null,null,2660.48,null,null,null,null,null,above,IBstimulus_absent,null,null,8787.67
4,132,1,horizontal,horizontal,null,null,null,5397.445,null,null,null,null,null,above,IBstimulus_absent,null,null,9949.12
4,132,2,horizontal,horizontal,null,null,null,3031.58,null,null,null,null,null,below,IBstimulus_absent,null,null,5947.16
4,132,3,horizontal,vertical,yes,blue,reportColor,3806.76,4659.325,5395.985,4533.945,3227.395,3873.575,below,IBstimulus_present,blue,right,29256.135
4,133,0,horizontal,horizontal,null,null,null,8304.6,null,null,null,null,null,below,IBstimulus_absent,null,null,13949.3
4,133,1,horizontal,horizontal,null,null,null,1846,null,null,null,null,null,below,IBstimulus_absent,null,null,5713.1
4,133,2,horizontal,horizontal,null,null,null,2248.3,null,null,null,null,null,below,IBstimulus_absent,null,null,6283.4
4,133,3,vertical,vertical,yes,red,reportColor,2835,4215.5,8798.1,13708.8,2888.6,3385,below,IBstimulus_present,red,right,39202.7
4,134,0,horizontal,vertical,null,null,null,6268.105,null,null,null,null,null,below,IBstimulus_absent,null,null,15560.07
4,134,1,horizontal,vertical,null,null,null,3730.005,null,null,null,null,null,above,IBstimulus_absent,null,null,10114.14
4,134,2,horizontal,horizontal,null,null,null,2631.855,null,null,null,null,null,below,IBstimulus_absent,null,null,9327.55
4,134,3,horizontal,horizontal,yes,blue,reportColor,2380.78,5200.13,8303.23,8498.745,4150.83,4866.05,below,IBstimulus_present,blue,left,39350.545
4,135,0,vertical,vertical,null,null,null,3131.425,null,null,null,null,null,above,IBstimulus_absent,null,null,15760.56
4,135,1,vertical,vertical,null,null,null,3318.565,null,null,null,null,null,above,IBstimulus_absent,null,null,7398.89
4,135,2,horizontal,horizontal,null,null,null,2079.585,null,null,null,null,null,above,IBstimulus_absent,null,null,5692.425
4,135,3,vertical,vertical,yes,red,reportColor,2826.97,4617.885,2894.625,5163.81,2987.105,4202.015,below,IBstimulus_present,red,left,25885.62
4,136,0,vertical,vertical,null,null,null,3516.445,null,null,null,null,null,above,IBstimulus_absent,null,null,9075.08
4,136,1,horizontal,horizontal,null,null,null,2215.355,null,null,null,null,null,below,IBstimulus_absent,null,null,5918.465
4,136,2,vertical,vertical,null,null,null,1540.985,null,null,null,null,null,above,IBstimulus_absent,null,null,5023.535
4,136,3,horizontal,horizontal,yes,blue,reportColor,3199.625,2440.79,2486.42,3395.25,2786.75,4439.975,above,IBstimulus_present,blue,left,22639.88
4,137,0,horizontal,horizontal,null,null,null,4383.19,null,null,null,null,null,below,IBstimulus_absent,null,null,13285.055
4,137,1,horizontal,horizontal,null,null,null,3011.4,null,null,null,null,null,below,IBstimulus_absent,null,null,7500.915
4,137,2,vertical,vertical,null,null,null,2948.97,null,null,null,null,null,above,IBstimulus_absent,null,null,6778.32
4,137,3,vertical,vertical,yes,blue,reportColor,2592.455,6535.625,3168.22,5933.835,4003.64,5165.3,below,IBstimulus_present,blue,left,30419.315
4,138,0,vertical,horizontal,null,null,null,8691.64,null,null,null,null,null,below,IBstimulus_absent,null,null,14335.67
4,138,1,horizontal,horizontal,null,null,null,6725.86,null,null,null,null,null,below,IBstimulus_absent,null,null,12362.92
4,138,2,vertical,vertical,null,null,null,2257.85,null,null,null,null,null,above,IBstimulus_absent,null,null,8482.01
4,138,3,vertical,vertical,yes,blue,reportColor,3931.245,3478.745,2502.18,7341.475,3869.155,6830.49,above,IBstimulus_present,blue,right,31934.345
4,139,0,horizontal,horizontal,null,null,null,4186,null,null,null,null,null,above,IBstimulus_absent,null,null,11762
4,139,1,horizontal,horizontal,null,null,null,3870,null,null,null,null,null,above,IBstimulus_absent,null,null,8209
4,139,2,horizontal,horizontal,null,null,null,2990,null,null,null,null,null,above,IBstimulus_absent,null,null,5884
4,139,3,vertical,vertical,yes,blue,reportColor,2793,5573,6781,5818,3682,4052,below,IBstimulus_present,blue,left,31836
4,140,0,horizontal,horizontal,null,null,null,4166.24,null,null,null,null,null,above,IBstimulus_absent,null,null,9447.075
4,140,1,horizontal,horizontal,null,null,null,4748.555,null,null,null,null,null,above,IBstimulus_absent,null,null,12005.86
4,140,2,horizontal,vertical,null,null,null,4080.315,null,null,null,null,null,below,IBstimulus_absent,null,null,7950.055
4,140,3,horizontal,vertical,yes,red,reportColor,4247.51,4420.22,5382.59,6219.4,4666.2,5470.505,below,IBstimulus_present,red,right,34123.4
4,141,0,horizontal,horizontal,null,null,null,5247.14,null,null,null,null,null,above,IBstimulus_absent,null,null,26815.055
4,141,1,vertical,vertical,null,null,null,3330.64,null,null,null,null,null,below,IBstimulus_absent,null,null,12879.055
4,141,2,vertical,vertical,null,null,null,5109.58,null,null,null,null,null,above,IBstimulus_absent,null,null,11657.015
4,141,3,horizontal,horizontal,no,blue,reportColor,4090.84,13311.895,7565.44,4949.635,4315.635,8415.545,above,IBstimulus_absent,null,null,47544.15
4,142,0,horizontal,horizontal,null,null,null,4115,null,null,null,null,null,above,IBstimulus_absent,null,null,16364
4,142,1,horizontal,horizontal,null,null,null,3238,null,null,null,null,null,above,IBstimulus_absent,null,null,9028
4,142,2,horizontal,horizontal,null,null,null,2462,null,null,null,null,null,above,IBstimulus_absent,null,null,7063
4,142,3,vertical,vertical,no,blue,reportColor,2435,5496,8743,9511,5201,5520,below,IBstimulus_absent,null,null,63159
4,143,0,horizontal,horizontal,null,null,null,4166.24,null,null,null,null,null,above,IBstimulus_absent,null,null,9447.075
4,143,1,horizontal,horizontal,null,null,null,4748.555,null,null,null,null,null,above,IBstimulus_absent,null,null,12005.86
4,143,2,horizontal,vertical,null,null,null,4080.315,null,null,null,null,null,below,IBstimulus_absent,null,null,7950.055
4,143,3,horizontal,vertical,yes,red,reportColor,4247.51,4420.22,5382.59,6219.4,4666.2,5470.505,below,IBstimulus_present,red,right,34123.4
4,144,0,vertical,horizontal,null,null,null,10242.645,null,null,null,null,null,below,IBstimulus_absent,null,null,23407.175
4,144,1,horizontal,horizontal,null,null,null,6319.88,null,null,null,null,null,below,IBstimulus_absent,null,null,11471.415
4,144,2,horizontal,horizontal,null,null,null,4832.625,null,null,null,null,null,above,IBstimulus_absent,null,null,14028.02
4,144,3,horizontal,horizontal,no,red,reportColor,3920.815,7199.035,12384.805,11876.305,6207.925,7509.16,above,IBstimulus_present,red,left,53709.345
4,145,0,horizontal,horizontal,null,null,null,3018.39,null,null,null,null,null,below,IBstimulus_absent,null,null,8559.255
4,145,1,horizontal,horizontal,null,null,null,2129.945,null,null,null,null,null,above,IBstimulus_absent,null,null,9775.83
4,145,2,vertical,vertical,null,null,null,2258.815,null,null,null,null,null,below,IBstimulus_absent,null,null,6044.925
4,145,3,vertical,vertical,no,blue,reportColor,2539.635,4227.42,13674.945,3366.44,3363.67,4861.995,below,IBstimulus_absent,null,null,35354.165
4,146,0,horizontal,horizontal,null,null,null,3669,null,null,null,null,null,above,IBstimulus_absent,null,null,15186
4,146,1,vertical,vertical,null,null,null,2942,null,null,null,null,null,above,IBstimulus_absent,null,null,7855
4,146,2,horizontal,horizontal,null,null,null,3056,null,null,null,null,null,below,IBstimulus_absent,null,null,61880
4,146,3,horizontal,horizontal,yes,blue,reportColor,6545,5768,11783,7215,3065,10495,above,IBstimulus_present,red,left,49159
4,147,0,vertical,vertical,null,null,null,6628.335,null,null,null,null,null,above,IBstimulus_absent,null,null,15076
4,147,1,horizontal,horizontal,null,null,null,1219.965,null,null,null,null,null,above,IBstimulus_absent,null,null,7506.27
4,147,2,horizontal,horizontal,null,null,null,1285.595,null,null,null,null,null,below,IBstimulus_absent,null,null,4515.165
4,147,3,horizontal,horizontal,no,blue,reportColor,1480.3,2893.22,4183.145,9643.745,2666.505,5066.055,below,IBstimulus_absent,null,null,33696.44
4,148,0,vertical,vertical,null,null,null,9039.955,null,null,null,null,null,above,IBstimulus_absent,null,null,20689.8
4,148,1,vertical,vertical,null,null,null,2078.455,null,null,null,null,null,below,IBstimulus_absent,null,null,6895.92
4,148,2,horizontal,horizontal,null,null,null,1801.065,null,null,null,null,null,above,IBstimulus_absent,null,null,7596.16
4,148,3,vertical,vertical,yes,blue,reportColor,1740.68,5871.475,9680.55,4365.355,4272,4566.265,above,IBstimulus_present,red,left,34512.91
4,149,0,horizontal,vertical,null,null,null,5233.36,null,null,null,null,null,above,IBstimulus_absent,null,null,10279.035
4,149,1,vertical,vertical,null,null,null,1996.96,null,null,null,null,null,below,IBstimulus_absent,null,null,6866.31
4,149,2,horizontal,horizontal,null,null,null,1571.325,null,null,null,null,null,below,IBstimulus_absent,null,null,5156.27
4,149,3,vertical,vertical,yes,red,reportColor,1583.435,4019.08,3623.275,7377.045,3794.875,4044.09,above,IBstimulus_present,red,right,27595.36
4,150,0,vertical,vertical,null,null,null,2347,null,null,null,null,null,below,IBstimulus_absent,null,null,11879
4,150,1,vertical,vertical,null,null,null,1811,null,null,null,null,null,above,IBstimulus_absent,null,null,5431
4,150,2,vertical,vertical,null,null,null,1622,null,null,null,null,null,below,IBstimulus_absent,null,null,4978
4,150,3,vertical,vertical,no,blue,reportColor,1649,4871,6458,7178,3303,3576,above,IBstimulus_present,red,right,30293
4,151,0,horizontal,horizontal,null,null,null,2810.52,null,null,null,null,null,above,IBstimulus_absent,null,null,8327.39
4,151,1,vertical,vertical,null,null,null,1730.095,null,null,null,null,null,above,IBstimulus_absent,null,null,5440.34
4,151,2,horizontal,horizontal,null,null,null,2837.595,null,null,null,null,null,above,IBstimulus_absent,null,null,5891.9
4,151,3,horizontal,horizontal,no,blue,reportColor,1706.945,5609.43,8478.99,4422.055,2900,3388.805,below,IBstimulus_absent,null,null,31583.825
4,152,0,horizontal,horizontal,null,null,null,4366.275,null,null,null,null,null,below,IBstimulus_absent,null,null,12161.125
4,152,1,vertical,vertical,null,null,null,2072.52,null,null,null,null,null,below,IBstimulus_absent,null,null,10204.6
4,152,2,horizontal,horizontal,null,null,null,2448.995,null,null,null,null,null,above,IBstimulus_absent,null,null,7357.835
4,152,3,horizontal,horizontal,no,blue,reportColor,1166.375,6335.415,8519.64,10271.26,3327.6,11647.505,below,IBstimulus_absent,null,null,45632.2
4,153,0,vertical,vertical,null,null,null,9039.955,null,null,null,null,null,above,IBstimulus_absent,null,null,20689.8
4,153,1,vertical,vertical,null,null,null,2078.455,null,null,null,null,null,below,IBstimulus_absent,null,null,6895.92
4,153,2,horizontal,horizontal,null,null,null,1801.065,null,null,null,null,null,above,IBstimulus_absent,null,null,7596.16
4,153,3,vertical,vertical,yes,blue,reportColor,1740.68,5871.475,9680.55,4365.355,4272,4566.265,above,IBstimulus_present,red,left,34512.91
4,154,0,horizontal,horizontal,null,null,null,3576.005,null,null,null,null,null,above,IBstimulus_absent,null,null,14469.97
4,154,1,horizontal,horizontal,null,null,null,1923.83,null,null,null,null,null,below,IBstimulus_absent,null,null,10610.625
4,154,2,horizontal,horizontal,null,null,null,1625.35,null,null,null,null,null,below,IBstimulus_absent,null,null,4783.825
4,154,3,vertical,vertical,yes,red,reportColor,1687.635,7227.26,6659.615,15946.305,4210.08,83107.52,above,IBstimulus_absent,null,null,122491.41
4,155,0,horizontal,horizontal,null,null,null,4974.805,null,null,null,null,null,below,IBstimulus_absent,null,null,11015.16
4,155,1,horizontal,horizontal,null,null,null,2107.195,null,null,null,null,null,above,IBstimulus_absent,null,null,6060.085
4,155,2,horizontal,horizontal,null,null,null,1881.725,null,null,null,null,null,above,IBstimulus_absent,null,null,5406.475
4,155,3,vertical,vertical,no,red,reportColor,1588.28,5592.865,13140.535,11708.83,5718.075,4123.43,above,IBstimulus_absent,null,null,45267.86
4,156,0,horizontal,horizontal,null,null,null,9599.42,null,null,null,null,null,above,IBstimulus_absent,null,null,22886.84
4,156,1,vertical,vertical,null,null,null,4543.985,null,null,null,null,null,below,IBstimulus_absent,null,null,9849.11
4,156,2,vertical,vertical,null,null,null,3877.015,null,null,null,null,null,below,IBstimulus_absent,null,null,7852.81
4,156,3,vertical,vertical,yes,blue,reportColor,3919.605,6212.42,12979.48,11980.365,4343.845,6906.315,above,IBstimulus_present,blue,left,49923.54
4,157,0,vertical,vertical,null,null,null,3488.98,null,null,null,null,null,below,IBstimulus_absent,null,null,7865.975
4,157,1,horizontal,horizontal,null,null,null,2329.55,null,null,null,null,null,below,IBstimulus_absent,null,null,6257.875
4,157,2,vertical,vertical,null,null,null,1966.06,null,null,null,null,null,below,IBstimulus_absent,null,null,4820.585
4,157,3,horizontal,horizontal,yes,red,reportColor,1933.815,6603.725,2259.88,3973.06,3988.97,4576.835,above,IBstimulus_present,red,left,30066.075
4,158,0,vertical,horizontal,null,null,null,6765.74,null,null,null,null,null,above,IBstimulus_absent,null,null,15606.61
4,158,1,horizontal,horizontal,null,null,null,1941.915,null,null,null,null,null,above,IBstimulus_absent,null,null,9173.91
4,158,2,horizontal,horizontal,null,null,null,2214.165,null,null,null,null,null,below,IBstimulus_absent,null,null,5608.935
4,158,3,vertical,vertical,yes,blue,reportColor,2294.91,4492.595,7007.18,4554.225,4079.67,4948.91,below,IBstimulus_present,blue,right,30823.885
4,159,0,horizontal,horizontal,null,null,null,5070.715,null,null,null,null,null,below,IBstimulus_absent,null,null,14665.455
4,159,1,horizontal,horizontal,null,null,null,4297.015,null,null,null,null,null,above,IBstimulus_absent,null,null,11234.215
4,159,2,vertical,vertical,null,null,null,4042.575,null,null,null,null,null,below,IBstimulus_absent,null,null,8922.235
4,159,3,vertical,vertical,yes,blue,reportColor,4000.625,6187.25,9645.55,8799.435,5205.46,6747.3,above,IBstimulus_present,red,left,45710.685
4,160,0,vertical,vertical,null,null,null,2587,null,null,null,null,null,above,IBstimulus_absent,null,null,9848
4,160,1,vertical,vertical,null,null,null,1838,null,null,null,null,null,below,IBstimulus_absent,null,null,4964
4,160,2,vertical,vertical,null,null,null,1684,null,null,null,null,null,above,IBstimulus_absent,null,null,10128
4,160,3,vertical,vertical,yes,red,reportColor,1257,7129,2587,3368,4353,3017,above,IBstimulus_present,red,left,24397
4,161,0,horizontal,horizontal,null,null,null,4884,null,null,null,null,null,below,IBstimulus_absent,null,null,15001
4,161,1,vertical,vertical,null,null,null,2218,null,null,null,null,null,above,IBstimulus_absent,null,null,10801
4,161,2,vertical,vertical,null,null,null,3659,null,null,null,null,null,below,IBstimulus_absent,null,null,8309
4,161,3,horizontal,horizontal,yes,red,reportColor,2575,4731,5301,6386,3994,9560,above,IBstimulus_present,red,left,37524
4,162,0,vertical,vertical,null,null,null,3450,null,null,null,null,null,above,IBstimulus_absent,null,null,12329
4,162,1,horizontal,horizontal,null,null,null,1929,null,null,null,null,null,below,IBstimulus_absent,null,null,11007
4,162,2,vertical,vertical,null,null,null,4379,null,null,null,null,null,above,IBstimulus_absent,null,null,11108
4,162,3,horizontal,horizontal,no,blue,reportColor,1871,8525,9831,10866,4050,5340,above,IBstimulus_absent,null,null,46487
4,163,0,horizontal,horizontal,null,null,null,4872.735,null,null,null,null,null,below,IBstimulus_absent,null,null,18301.39
4,163,1,horizontal,horizontal,null,null,null,2164.92,null,null,null,null,null,below,IBstimulus_absent,null,null,9016.32
4,163,2,vertical,vertical,null,null,null,1943.14,null,null,null,null,null,below,IBstimulus_absent,null,null,5859.65
4,163,3,horizontal,horizontal,no,blue,reportColor,2043.82,3686.045,6767.9,4627.79,3267.115,3583.495,above,IBstimulus_present,red,left,27844.145
4,164,0,vertical,null,null,null,null,null,null,null,null,null,null,below,IBstimulus_absent,null,null,
4,164,1,vertical,null,null,null,null,null,null,null,null,null,null,below,IBstimulus_absent,null,null,
4,164,2,vertical,null,null,null,null,null,null,null,null,null,null,above,IBstimulus_absent,null,null,
4,164,3,vertical,null,null,null,reportColor,null,null,null,null,null,null,above,IBstimulus_present,blue,left,
4,165,0,horizontal,horizontal,null,null,null,1871,null,null,null,null,null,below,IBstimulus_absent,null,null,7769
4,165,1,horizontal,horizontal,null,null,null,1879,null,null,null,null,null,below,IBstimulus_absent,null,null,6449
4,165,2,horizontal,horizontal,null,null,null,1829,null,null,null,null,null,above,IBstimulus_absent,null,null,4605
4,165,3,vertical,vertical,yes,red,reportColor,1893,3233,8578,3474,2838,3185,below,IBstimulus_absent,null,null,26085
4,166,0,horizontal,horizontal,null,null,null,3617.4,null,null,null,null,null,above,IBstimulus_absent,null,null,14916.02
4,166,1,vertical,vertical,null,null,null,4432.37,null,null,null,null,null,above,IBstimulus_absent,null,null,8362.425
4,166,2,vertical,vertical,null,null,null,2059.56,null,null,null,null,null,above,IBstimulus_absent,null,null,5358.91
4,166,3,horizontal,horizontal,no,blue,reportColor,2526.165,5509.445,4935.52,4183.11,3949.175,4341.28,above,IBstimulus_present,blue,left,34455.85
4,167,0,horizontal,horizontal,null,null,null,5651.72,null,null,null,null,null,below,IBstimulus_absent,null,null,12764.925
4,167,1,horizontal,horizontal,null,null,null,3790.345,null,null,null,null,null,above,IBstimulus_absent,null,null,13479.68
4,167,2,vertical,vertical,null,null,null,3494.815,null,null,null,null,null,below,IBstimulus_absent,null,null,8202.335
4,167,3,vertical,vertical,no,red,reportColor,2391.12,6026.475,7476.43,5548.855,4197.46,4736.63,above,IBstimulus_present,blue,right,34421.48
4,168,0,horizontal,horizontal,null,null,null,3953.265,null,null,null,null,null,above,IBstimulus_absent,null,null,8863.99
4,168,1,horizontal,horizontal,null,null,null,1279.545,null,null,null,null,null,above,IBstimulus_absent,null,null,5390.38
4,168,2,vertical,vertical,null,null,null,1527.61,null,null,null,null,null,below,IBstimulus_absent,null,null,5384.83
4,168,3,horizontal,horizontal,yes,blue,reportColor,1311.65,2319.755,3380,3435.205,2957.365,3547.155,above,IBstimulus_present,blue,left,20007.52
4,169,0,vertical,null,null,null,null,null,null,null,null,null,null,below,IBstimulus_absent,null,null,
4,169,1,horizontal,null,null,null,null,null,null,null,null,null,null,above,IBstimulus_absent,null,null,
4,169,2,horizontal,null,null,null,null,null,null,null,null,null,null,below,IBstimulus_absent,null,null,
4,169,3,vertical,null,null,null,reportColor,null,null,null,null,null,null,above,IBstimulus_present,blue,right,
4,170,0,horizontal,vertical,null,null,null,5042,null,null,null,null,null,below,IBstimulus_absent,null,null,13573
4,170,1,vertical,vertical,null,null,null,1871,null,null,null,null,null,below,IBstimulus_absent,null,null,12193
4,170,2,vertical,vertical,null,null,null,1743,null,null,null,null,null,above,IBstimulus_absent,null,null,6089
4,170,3,horizontal,horizontal,no,red,reportColor,1732,6936,8416,6645,4059,4355,below,IBstimulus_absent,null,null,39284
4,171,0,horizontal,horizontal,null,null,null,5955.94,null,null,null,null,null,below,IBstimulus_absent,null,null,13747.13
4,171,1,vertical,vertical,null,null,null,2930.435,null,null,null,null,null,below,IBstimulus_absent,null,null,9614.295
4,171,2,horizontal,horizontal,null,null,null,2207.905,null,null,null,null,null,above,IBstimulus_absent,null,null,6857.555
4,171,3,horizontal,horizontal,no,blue,reportColor,2694.135,7136.09,9932.48,8809.565,6109.32,5692.06,below,IBstimulus_present,blue,left,44185.975
4,172,0,horizontal,horizontal,null,null,null,2307.34,null,null,null,null,null,above,IBstimulus_absent,null,null,7687.82
4,172,1,vertical,vertical,null,null,null,1466.38,null,null,null,null,null,below,IBstimulus_absent,null,null,5483.885
4,172,2,vertical,vertical,null,null,null,1059.705,null,null,null,null,null,above,IBstimulus_absent,null,null,4766.095
4,172,3,vertical,vertical,no,blue,reportColor,763.04,3763.725,3555.255,7307.025,2073.755,2396.83,above,IBstimulus_present,blue,right,23848.41
4,173,0,vertical,vertical,null,null,null,3356.325,null,null,null,null,null,below,IBstimulus_absent,null,null,9848.845
4,173,1,horizontal,horizontal,null,null,null,2424.615,null,null,null,null,null,below,IBstimulus_absent,null,null,10181.365
4,173,2,vertical,vertical,null,null,null,2052.115,null,null,null,null,null,below,IBstimulus_absent,null,null,5809.05
4,173,3,vertical,vertical,no,blue,reportColor,2049.655,6854.715,8622.8,6229.21,4299.305,7963.02,below,IBstimulus_present,blue,right,42035.965
4,174,0,vertical,vertical,null,null,null,4963.865,null,null,null,null,null,above,IBstimulus_absent,null,null,10287.4
4,174,1,horizontal,horizontal,null,null,null,2312.505,null,null,null,null,null,above,IBstimulus_absent,null,null,6849.5
4,174,2,vertical,vertical,null,null,null,1935.165,null,null,null,null,null,below,IBstimulus_absent,null,null,5317.905
4,174,3,horizontal,horizontal,no,blue,reportColor,1666.55,3492.635,6313.56,4586.115,2830.82,5995.37,below,IBstimulus_absent,null,null,28259.185
4,175,0,horizontal,horizontal,null,null,null,2704.385,null,null,null,null,null,below,IBstimulus_absent,null,null,10147.865
4,175,1,vertical,vertical,null,null,null,1588.115,null,null,null,null,null,below,IBstimulus_absent,null,null,10015.45
4,175,2,vertical,vertical,null,null,null,1621.095,null,null,null,null,null,above,IBstimulus_absent,null,null,5064.525
4,175,3,horizontal,horizontal,yes,blue,reportColor,5495.245,2606.575,4195.295,7729.34,1831.24,4273.92,below,IBstimulus_present,blue,left,29156.195
4,176,0,horizontal,horizontal,null,null,null,13482.4,null,null,null,null,null,below,IBstimulus_absent,null,null,23608.66
4,176,1,horizontal,horizontal,null,null,null,4205.195,null,null,null,null,null,above,IBstimulus_absent,null,null,10066.58
4,176,2,horizontal,horizontal,null,null,null,6125,null,null,null,null,null,below,IBstimulus_absent,null,null,10503.735
4,176,3,vertical,vertical,yes,red,reportColor,2563.715,5639.56,4973.89,12730.305,6380.63,8110.815,above,IBstimulus_present,red,left,44929.34
4,177,0,horizontal,horizontal,null,null,null,2914.185,null,null,null,null,null,above,IBstimulus_absent,null,null,23120.48
4,177,1,vertical,vertical,null,null,null,2050.59,null,null,null,null,null,below,IBstimulus_absent,null,null,5512.355
4,177,2,vertical,vertical,null,null,null,2557.345,null,null,null,null,null,below,IBstimulus_absent,null,null,5711.395
4,177,3,vertical,vertical,yes,blue,reportColor,2510.88,2749.09,3722.815,6357.31,3333.905,5060.73,below,IBstimulus_present,blue,right,27007.385
4,178,0,horizontal,horizontal,null,null,null,3332.915,null,null,null,null,null,below,IBstimulus_absent,null,null,9673.08
4,178,1,vertical,vertical,null,null,null,2095.19,null,null,null,null,null,below,IBstimulus_absent,null,null,5819.585
4,178,2,horizontal,horizontal,null,null,null,2102.635,null,null,null,null,null,above,IBstimulus_absent,null,null,6582.355
4,178,3,horizontal,horizontal,yes,blue,reportColor,2717.06,3291.05,1904.235,7061.55,3306.58,6301.32,below,IBstimulus_present,blue,left,29598.4
4,179,0,vertical,vertical,null,null,null,3915.85,null,null,null,null,null,above,IBstimulus_absent,null,null,10497.505
4,179,1,horizontal,horizontal,null,null,null,2531.92,null,null,null,null,null,above,IBstimulus_absent,null,null,13149.54
4,179,2,horizontal,horizontal,null,null,null,2805.435,null,null,null,null,null,below,IBstimulus_absent,null,null,8528.515
4,179,3,horizontal,horizontal,no,blue,reportColor,2397.69,9290.52,9727.485,28635.685,4956.04,5470.055,above,IBstimulus_present,red,left,64689.965
4,180,0,horizontal,horizontal,null,null,null,6095,null,null,null,null,null,above,IBstimulus_absent,null,null,15537
4,180,1,horizontal,vertical,null,null,null,3885,null,null,null,null,null,below,IBstimulus_absent,null,null,9176
4,180,2,horizontal,horizontal,null,null,null,2638,null,null,null,null,null,above,IBstimulus_absent,null,null,6211
4,180,3,vertical,vertical,no,blue,reportColor,2216,5816,8299,5662,4249,5626,above,IBstimulus_absent,null,null,35222
4,181,0,horizontal,horizontal,null,null,null,4128.81,null,null,null,null,null,above,IBstimulus_absent,null,null,9199.68
4,181,1,horizontal,horizontal,null,null,null,2682.625,null,null,null,null,null,below,IBstimulus_absent,null,null,10076.95
4,181,2,vertical,vertical,null,null,null,2225.235,null,null,null,null,null,below,IBstimulus_absent,null,null,6191.815
4,181,3,vertical,vertical,yes,red,reportColor,4440.125,3066.88,2658.38,4065.945,5766.075,4840.035,below,IBstimulus_present,red,right,28598.53
4,182,0,horizontal,horizontal,null,null,null,4527.755,null,null,null,null,null,below,IBstimulus_absent,null,null,9869.685
4,182,1,horizontal,horizontal,null,null,null,2457.77,null,null,null,null,null,below,IBstimulus_absent,null,null,12958.135
4,182,2,vertical,vertical,null,null,null,2206.915,null,null,null,null,null,above,IBstimulus_absent,null,null,6931.2
4,182,3,horizontal,horizontal,no,blue,reportColor,2360.305,3226.1,8257.225,4247.905,3450.57,6858.525,below,IBstimulus_present,blue,right,32995.945
4,183,0,vertical,vertical,null,null,null,3934.2,null,null,null,null,null,below,IBstimulus_absent,null,null,9240.88
4,183,1,horizontal,horizontal,null,null,null,1735.105,null,null,null,null,null,above,IBstimulus_absent,null,null,6429.605
4,183,2,horizontal,horizontal,null,null,null,1896.65,null,null,null,null,null,above,IBstimulus_absent,null,null,7156.275
4,183,3,vertical,vertical,yes,blue,reportColor,4007.915,3312.96,5262.56,5750.41,4031.845,7472.735,below,IBstimulus_present,blue,left,33349.935
4,184,0,horizontal,horizontal,null,null,null,3417.715,null,null,null,null,null,below,IBstimulus_absent,null,null,8031.95
4,184,1,vertical,vertical,null,null,null,1581.095,null,null,null,null,null,above,IBstimulus_absent,null,null,7208.995
4,184,2,vertical,vertical,null,null,null,1494.23,null,null,null,null,null,above,IBstimulus_absent,null,null,4493.615
4,184,3,vertical,vertical,no,blue,reportColor,1200.725,4906.88,7486.31,6277.275,2918.605,3401.39,below,IBstimulus_absent,null,null,29280.795
4,185,0,vertical,vertical,null,null,null,2935.19,null,null,null,null,null,below,IBstimulus_absent,null,null,9239.335
4,185,1,vertical,vertical,null,null,null,1966.1,null,null,null,null,null,below,IBstimulus_absent,null,null,10482.225
4,185,2,vertical,vertical,null,null,null,2338.405,null,null,null,null,null,below,IBstimulus_absent,null,null,31135.135
4,185,3,vertical,vertical,no,blue,reportColor,2462.48,2988.2,5289.79,2660.73,3409.275,3536.92,above,IBstimulus_present,blue,right,24549.585
4,186,0,horizontal,horizontal,null,null,null,3817.415,null,null,null,null,null,below,IBstimulus_absent,null,null,15516.2
4,186,1,vertical,vertical,null,null,null,2056.735,null,null,null,null,null,above,IBstimulus_absent,null,null,13546.75
4,186,2,horizontal,horizontal,null,null,null,2489.195,null,null,null,null,null,below,IBstimulus_absent,null,null,6478.33
4,186,3,horizontal,horizontal,no,blue,reportColor,2265.13,4430.915,8756.96,3602.445,4331.955,4090.735,below,IBstimulus_absent,null,null,30842.955
4,187,0,vertical,vertical,null,null,null,4370,null,null,null,null,null,below,IBstimulus_absent,null,null,12631
4,187,1,vertical,vertical,null,null,null,2839,null,null,null,null,null,above,IBstimulus_absent,null,null,9618
4,187,2,horizontal,horizontal,null,null,null,2641,null,null,null,null,null,below,IBstimulus_absent,null,null,9135
4,187,3,horizontal,horizontal,no,blue,reportColor,2713,6450,13554,9939,3554,6812,below,IBstimulus_present,blue,right,50881
4,188,0,vertical,vertical,null,null,null,2577.025,null,null,null,null,null,below,IBstimulus_absent,null,null,7425.855
4,188,1,vertical,vertical,null,null,null,2042.9,null,null,null,null,null,below,IBstimulus_absent,null,null,7898.6
4,188,2,vertical,vertical,null,null,null,1779.51,null,null,null,null,null,below,IBstimulus_absent,null,null,4606.19
4,188,3,vertical,vertical,no,red,reportColor,1410.43,8011.29,7749.965,4631.755,2895.435,9462.105,above,IBstimulus_absent,null,null,37516.04
4,189,0,vertical,vertical,null,null,null,3037.725,null,null,null,null,null,above,IBstimulus_absent,null,null,7367.13
4,189,1,vertical,vertical,null,null,null,1032.19,null,null,null,null,null,above,IBstimulus_absent,null,null,7190.02
4,189,2,horizontal,horizontal,null,null,null,1404.19,null,null,null,null,null,below,IBstimulus_absent,null,null,7281.22
4,189,3,vertical,vertical,no,red,reportColor,1014.91,1822.765,4366.975,6144.76,2545.8,4079.74,below,IBstimulus_present,red,right,25609.41
4,190,0,vertical,null,null,null,null,null,null,null,null,null,null,above,IBstimulus_absent,null,null,
4,190,1,vertical,null,null,null,null,null,null,null,null,null,null,above,IBstimulus_absent,null,null,
4,190,2,vertical,null,null,null,null,null,null,null,null,null,null,below,IBstimulus_absent,null,null,
4,190,3,horizontal,null,null,null,reportColor,null,null,null,null,null,null,above,IBstimulus_present,red,right,
4,191,0,horizontal,horizontal,null,null,null,4002.925,null,null,null,null,null,above,IBstimulus_absent,null,null,12930.315
4,191,1,vertical,vertical,null,null,null,2870.9,null,null,null,null,null,below,IBstimulus_absent,null,null,6698.825
4,191,2,horizontal,horizontal,null,null,null,3311.21,null,null,null,null,null,below,IBstimulus_absent,null,null,7471.795
4,191,3,vertical,vertical,yes,red,reportColor,2732.235,4158.325,5470.37,8168.34,5061.2,6348.26,above,IBstimulus_present,red,right,35236.65
4,192,0,horizontal,horizontal,null,null,null,2939.395,null,null,null,null,null,below,IBstimulus_absent,null,null,10453.295
4,192,1,vertical,vertical,null,null,null,2994.115,null,null,null,null,null,below,IBstimulus_absent,null,null,6520.72
4,192,2,vertical,vertical,null,null,null,3408.11,null,null,null,null,null,above,IBstimulus_absent,null,null,7191.08
4,192,3,horizontal,horizontal,yes,blue,reportColor,1665.885,2567.065,2786.52,3838.55,2710.645,3785.5,above,IBstimulus_present,blue,right,20539.415
4,193,0,horizontal,horizontal,null,null,null,2422.305,null,null,null,null,null,above,IBstimulus_absent,null,null,7100.51
4,193,1,vertical,vertical,null,null,null,1338.105,null,null,null,null,null,below,IBstimulus_absent,null,null,6047.39
4,193,2,horizontal,horizontal,null,null,null,1236.965,null,null,null,null,null,above,IBstimulus_absent,null,null,4629.79
4,193,3,vertical,vertical,yes,red,reportColor,1810.485,2942.955,3128.075,5113.15,3501.22,2551.375,below,IBstimulus_present,red,right,22409.8
4,194,0,horizontal,horizontal,null,null,null,2534.16,null,null,null,null,null,above,IBstimulus_absent,null,null,7199.32
4,194,1,vertical,vertical,null,null,null,2523.2,null,null,null,null,null,above,IBstimulus_absent,null,null,7320.74
4,194,2,horizontal,horizontal,null,null,null,4726.875,null,null,null,null,null,above,IBstimulus_absent,null,null,7950.925
4,194,3,vertical,vertical,no,blue,reportColor,1854.69,4243.945,7463.11,5172.255,3620.145,5592.33,below,IBstimulus_absent,null,null,31270.795
4,195,0,vertical,horizontal,null,null,null,5395.72,null,null,null,null,null,above,IBstimulus_absent,null,null,10271.725
4,195,1,horizontal,horizontal,null,null,null,1084.21,null,null,null,null,null,above,IBstimulus_absent,null,null,4693.685
4,195,2,horizontal,vertical,null,null,null,914.755,null,null,null,null,null,below,IBstimulus_absent,null,null,4378.64
4,195,3,horizontal,horizontal,yes,blue,reportColor,2644.44,3322.045,4535.255,5449.115,3041.15,3747.565,above,IBstimulus_present,blue,left,26147.56
4,196,0,vertical,vertical,null,null,null,3474,null,null,null,null,null,below,IBstimulus_absent,null,null,18061
4,196,1,vertical,vertical,null,null,null,2183,null,null,null,null,null,above,IBstimulus_absent,null,null,5832
4,196,2,horizontal,horizontal,null,null,null,1307,null,null,null,null,null,below,IBstimulus_absent,null,null,4802
4,196,3,horizontal,horizontal,yes,blue,reportColor,1230,2551,2782,5690,2749,3749,below,IBstimulus_present,blue,right,22095
4,197,0,vertical,vertical,null,null,null,1435,null,null,null,null,null,above,IBstimulus_absent,null,null,5068
4,197,1,vertical,vertical,null,null,null,1595,null,null,null,null,null,below,IBstimulus_absent,null,null,4305
4,197,2,horizontal,horizontal,null,null,null,963,null,null,null,null,null,below,IBstimulus_absent,null,null,3552
4,197,3,horizontal,horizontal,yes,blue,reportColor,1375,1343,1381,3983,100433,2473,below,IBstimulus_present,blue,left,113785
4,198,0,horizontal,horizontal,null,null,null,4403.325,null,null,null,null,null,below,IBstimulus_absent,null,null,13655.825
4,198,1,vertical,vertical,null,null,null,4328.93,null,null,null,null,null,above,IBstimulus_absent,null,null,11973.845
4,198,2,horizontal,horizontal,null,null,null,1945.495,null,null,null,null,null,below,IBstimulus_absent,null,null,5548.075
4,198,3,vertical,vertical,no,blue,reportColor,3837.16,6444.335,10346.38,6276.015,4233.48,6268.005,below,IBstimulus_present,blue,left,40635.44
4,199,0,vertical,vertical,null,null,null,13316.84,null,null,null,null,null,below,IBstimulus_absent,null,null,20956.24
4,199,1,horizontal,horizontal,null,null,null,2994.25,null,null,null,null,null,above,IBstimulus_absent,null,null,9066.765
4,199,2,vertical,vertical,null,null,null,2742.535,null,null,null,null,null,above,IBstimulus_absent,null,null,7996.82
4,199,3,vertical,vertical,no,blue,reportColor,3202.075,6803.815,14095.155,9634.5,4545.025,7938.195,below,IBstimulus_present,blue,right,52569.01
4,200,0,vertical,vertical,null,null,null,2113.05,null,null,null,null,null,below,IBstimulus_absent,null,null,7795.91
4,200,1,vertical,vertical,null,null,null,2118.58,null,null,null,null,null,above,IBstimulus_absent,null,null,9739.87
4,200,2,vertical,vertical,null,null,null,1595.57,null,null,null,null,null,below,IBstimulus_absent,null,null,5267.995
4,200,3,horizontal,horizontal,no,red,reportColor,1395.535,2744.885,7377.645,4917.405,2631.91,3336.18,above,IBstimulus_absent,null,null,28973.585
4,201,0,horizontal,horizontal,null,null,null,3136.315,null,null,null,null,null,below,IBstimulus_absent,null,null,8795.735
4,201,1,horizontal,horizontal,null,null,null,2559.855,null,null,null,null,null,above,IBstimulus_absent,null,null,8486.72
4,201,2,vertical,vertical,null,null,null,1905.525,null,null,null,null,null,above,IBstimulus_absent,null,null,5928.83
4,201,3,vertical,vertical,no,blue,reportColor,2666.26,3944.335,6771.175,4469.795,3099.515,3854.43,below,IBstimulus_absent,null,null,28128.075
4,202,0,horizontal,horizontal,null,null,null,3952.125,null,null,null,null,null,above,IBstimulus_absent,null,null,9365.725
4,202,1,vertical,vertical,null,null,null,2885.28,null,null,null,null,null,above,IBstimulus_absent,null,null,7977.965
