batchNum,subjectID,trialNum,longerArm,response_longerArm,response_yesNo,response_AFC,AFCquestion,RT_longerArm,RT_yesNo,RT_AFC,RT_IBfamiliarity,RT_age,RT_ishihara,aboveBelow,trialType,IBstimulus_color,IBstimulus_location,trialTime
1,0,0,vertical,vertical,null,null,null,2724.7,null,null,null,null,null,above,IBstimulus_absent,null,null,12205.275
1,0,1,vertical,vertical,null,null,null,3935.395,null,null,null,null,null,below,IBstimulus_absent,null,null,9653
1,0,2,vertical,vertical,null,null,null,1707.345,null,null,null,null,null,above,IBstimulus_absent,null,null,4782.385
1,0,3,horizontal,horizontal,no,blue,reportColor,1536.37,5095.355,9896.55,8806.425,3232.42,4871.79,below,IBstimulus_present,red,left,36668.55
1,1,0,horizontal,horizontal,null,null,null,11850.97,null,null,null,null,null,above,IBstimulus_absent,null,null,24621.58
1,1,1,horizontal,horizontal,null,null,null,6574.71,null,null,null,null,null,above,IBstimulus_absent,null,null,14214.71
1,1,2,horizontal,horizontal,null,null,null,4066.49,null,null,null,null,null,above,IBstimulus_absent,null,null,9216.3
1,1,3,horizontal,horizontal,yes,red,reportColor,4177.21,9870.63,3600.195,9293.435,6993.315,10836.595,below,IBstimulus_present,red,left,51990.34
1,2,0,horizontal,horizontal,null,null,null,2528.96,null,null,null,null,null,below,IBstimulus_absent,null,null,8518.465
1,2,1,vertical,vertical,null,null,null,2277.32,null,null,null,null,null,below,IBstimulus_absent,null,null,8194.605
1,2,2,vertical,vertical,null,null,null,1769.03,null,null,null,null,null,below,IBstimulus_absent,null,null,6073.325
1,2,3,vertical,vertical,yes,blue,reportColor,1826.085,5372.95,7231.34,4434.35,3893.49,6219.325,above,IBstimulus_absent,null,null,36015.245
1,3,0,vertical,vertical,null,null,null,5552.97,null,null,null,null,null,below,IBstimulus_absent,null,null,17806.325
1,3,1,vertical,vertical,null,null,null,4025.48,null,null,null,null,null,below,IBstimulus_absent,null,null,10647.165
1,3,2,vertical,vertical,null,null,null,2838.705,null,null,null,null,null,above,IBstimulus_absent,null,null,8506.24
1,3,3,horizontal,horizontal,yes,blue,reportColor,2513.48,18023.355,21903.195,18301.58,6641.36,16167.23,below,IBstimulus_present,red,right,88331.44
1,4,0,vertical,vertical,null,null,null,5438.92,null,null,null,null,null,below,IBstimulus_absent,null,null,11621.265
1,4,1,vertical,vertical,null,null,null,2889.145,null,null,null,null,null,above,IBstimulus_absent,null,null,7137.1
1,4,2,vertical,vertical,null,null,null,2403.96,null,null,null,null,null,below,IBstimulus_absent,null,null,5704.28
1,4,3,horizontal,horizontal,no,blue,reportColor,2242.75,5400.48,7454.94,8985.235,3810.96,5595.895,above,IBstimulus_present,blue,right,36277.3
1,5,0,vertical,vertical,null,null,null,5737.985,null,null,null,null,null,above,IBstimulus_absent,null,null,10517.975
1,5,1,vertical,vertical,null,null,null,1453.895,null,null,null,null,null,below,IBstimulus_absent,null,null,6244.67
1,5,2,horizontal,horizontal,null,null,null,1197.475,null,null,null,null,null,below,IBstimulus_absent,null,null,4294.94
1,5,3,horizontal,horizontal,no,red,reportColor,1148.665,5028.035,5456.86,4799.86,3514.04,4020.355,below,IBstimulus_absent,null,null,26766.555
1,6,0,horizontal,horizontal,null,null,null,4682.02,null,null,null,null,null,above,IBstimulus_absent,null,null,10888.72
1,6,1,vertical,vertical,null,null,null,1359.16,null,null,null,null,null,below,IBstimulus_absent,null,null,5464.35
1,6,2,vertical,vertical,null,null,null,2301.925,null,null,null,null,null,below,IBstimulus_absent,null,null,5543.08
1,6,3,vertical,horizontal,yes,blue,reportColor,2585.91,3918.675,5327.95,5075.125,3349.02,4848.15,above,IBstimulus_present,blue,right,28959.055
1,7,0,horizontal,horizontal,null,null,null,3289,null,null,null,null,null,below,IBstimulus_absent,null,null,11242
1,7,1,horizontal,horizontal,null,null,null,2867,null,null,null,null,null,above,IBstimulus_absent,null,null,7078
1,7,2,horizontal,horizontal,null,null,null,1653,null,null,null,null,null,above,IBstimulus_absent,null,null,5152
1,7,3,horizontal,horizontal,yes,blue,reportColor,4246,2680,2879,4679,3119,5512,above,IBstimulus_present,blue,left,26861
1,8,0,vertical,vertical,null,null,null,4649,null,null,null,null,null,above,IBstimulus_absent,null,null,12922
1,8,1,horizontal,vertical,null,null,null,2548,null,null,null,null,null,below,IBstimulus_absent,null,null,12794
1,8,2,horizontal,vertical,null,null,null,2124,null,null,null,null,null,below,IBstimulus_absent,null,null,5241
1,8,3,vertical,vertical,yes,blue,reportColor,3921,4284,3044,8704,3895,3596,below,IBstimulus_present,blue,left,30380
1,9,0,horizontal,horizontal,null,null,null,3182.51,null,null,null,null,null,above,IBstimulus_absent,null,null,7960.84
1,9,1,horizontal,horizontal,null,null,null,1748.64,null,null,null,null,null,below,IBstimulus_absent,null,null,10006.37
1,9,2,horizontal,horizontal,null,null,null,1226.355,null,null,null,null,null,above,IBstimulus_absent,null,null,4863.595
1,9,3,horizontal,horizontal,no,blue,reportColor,1222.355,3050.115,8121.84,6088.7,2311.145,3857.605,below,IBstimulus_absent,null,null,27577.885
1,10,0,vertical,vertical,null,null,null,2599,null,null,null,null,null,above,IBstimulus_absent,null,null,13592
1,10,1,vertical,vertical,null,null,null,2164,null,null,null,null,null,above,IBstimulus_absent,null,null,6296
1,10,2,horizontal,horizontal,null,null,null,3405,null,null,null,null,null,below,IBstimulus_absent,null,null,6307
1,10,3,horizontal,horizontal,no,blue,reportColor,1420,5077,6417,6093,4688,4132,below,IBstimulus_present,red,left,30843
1,11,0,vertical,horizontal,null,null,null,8196,null,null,null,null,null,above,IBstimulus_absent,null,null,19400
1,11,1,horizontal,vertical,null,null,null,4398,null,null,null,null,null,above,IBstimulus_absent,null,null,9304
1,11,2,horizontal,horizontal,null,null,null,3703,null,null,null,null,null,below,IBstimulus_absent,null,null,9696
1,11,3,vertical,vertical,yes,blue,reportColor,4400,5179,6839,6345,4449,4948,below,IBstimulus_present,blue,left,35553
1,12,0,vertical,vertical,null,null,null,3884.14,null,null,null,null,null,below,IBstimulus_absent,null,null,8881.14
1,12,1,vertical,horizontal,null,null,null,2233.23,null,null,null,null,null,above,IBstimulus_absent,null,null,6061.765
1,12,2,horizontal,horizontal,null,null,null,2471.2,null,null,null,null,null,below,IBstimulus_absent,null,null,5806.355
1,12,3,vertical,vertical,yes,blue,reportColor,1714.605,2775.735,3336.47,2303.775,5229.94,3827.73,above,IBstimulus_present,blue,right,22449.625
1,13,0,vertical,vertical,null,null,null,4544.26,null,null,null,null,null,below,IBstimulus_absent,null,null,18478.01
1,13,1,vertical,vertical,null,null,null,3477.615,null,null,null,null,null,below,IBstimulus_absent,null,null,8276.405
1,13,2,horizontal,horizontal,null,null,null,3093.83,null,null,null,null,null,below,IBstimulus_absent,null,null,7415.66
1,13,3,horizontal,horizontal,no,blue,reportColor,4087.035,7666.935,10235.285,9180.39,5030.33,8165.28,above,IBstimulus_present,blue,left,48061.455
1,14,0,vertical,null,null,null,null,null,null,null,null,null,null,above,IBstimulus_absent,null,null,
1,14,1,horizontal,null,null,null,null,null,null,null,null,null,null,above,IBstimulus_absent,null,null,
1,14,2,vertical,null,null,null,null,null,null,null,null,null,null,above,IBstimulus_absent,null,null,
1,14,3,horizontal,null,null,null,reportColor,null,null,null,null,null,null,below,IBstimulus_absent,null,null,
1,15,0,vertical,vertical,null,null,null,2719.995,null,null,null,null,null,below,IBstimulus_absent,null,null,7401.4
1,15,1,horizontal,horizontal,null,null,null,1369.98,null,null,null,null,null,above,IBstimulus_absent,null,null,5611.205
1,15,2,horizontal,horizontal,null,null,null,1657.2,null,null,null,null,null,below,IBstimulus_absent,null,null,5816.69
1,15,3,vertical,vertical,yes,red,reportColor,1480.995,5014.775,1934.265,3606.4,5448.11,3482.195,below,IBstimulus_present,red,right,23828.21
1,16,0,horizontal,horizontal,null,null,null,1532.98,null,null,null,null,null,below,IBstimulus_absent,null,null,17443.085
1,16,1,vertical,vertical,null,null,null,1646.965,null,null,null,null,null,above,IBstimulus_absent,null,null,8892.905
1,16,2,horizontal,horizontal,null,null,null,1420.615,null,null,null,null,null,above,IBstimulus_absent,null,null,5179.17
1,16,3,horizontal,horizontal,no,red,reportColor,1630.33,3856.315,6583.735,6431.325,2860.135,2955.04,below,IBstimulus_absent,null,null,29578.64
1,17,0,vertical,horizontal,null,null,null,5650.035,null,null,null,null,null,above,IBstimulus_absent,null,null,12080.8
1,17,1,vertical,vertical,null,null,null,2189.59,null,null,null,null,null,above,IBstimulus_absent,null,null,6601.72
1,17,2,vertical,vertical,null,null,null,2034.415,null,null,null,null,null,below,IBstimulus_absent,null,null,6887.75
1,17,3,horizontal,horizontal,yes,blue,reportColor,1733.03,3289.215,2533.82,4864.815,3481.92,6104.62,above,IBstimulus_present,blue,left,25950.62
1,18,0,vertical,vertical,null,null,null,5786.19,null,null,null,null,null,below,IBstimulus_absent,null,null,11155.565
1,18,1,horizontal,horizontal,null,null,null,2669.17,null,null,null,null,null,above,IBstimulus_absent,null,null,6577.39
1,18,2,horizontal,horizontal,null,null,null,2502.16,null,null,null,null,null,below,IBstimulus_absent,null,null,6260.805
1,18,3,horizontal,horizontal,yes,red,reportColor,5860.375,4911.27,11697.355,12087.405,4141.495,6759.065,above,IBstimulus_present,red,left,50143.095
1,19,0,vertical,vertical,null,null,null,3944.145,null,null,null,null,null,below,IBstimulus_absent,null,null,19778.17
1,19,1,horizontal,horizontal,null,null,null,1848.81,null,null,null,null,null,below,IBstimulus_absent,null,null,5198.805
1,19,2,horizontal,horizontal,null,null,null,1270.63,null,null,null,null,null,below,IBstimulus_absent,null,null,4269.465
1,19,3,vertical,vertical,yes,blue,reportColor,1199.78,3058.925,2224.37,3721.61,2774.4,3556.785,below,IBstimulus_present,blue,left,19305.34
1,20,0,horizontal,vertical,null,null,null,6366.225,null,null,null,null,null,above,IBstimulus_absent,null,null,21741.545
1,20,1,horizontal,horizontal,null,null,null,1513.385,null,null,null,null,null,above,IBstimulus_absent,null,null,5588.92
1,20,2,horizontal,horizontal,null,null,null,2035.07,null,null,null,null,null,below,IBstimulus_absent,null,null,6342.77
1,20,3,vertical,vertical,no,blue,reportColor,1632.105,6154.715,8064.6,6265.27,7335.77,5179.225,above,IBstimulus_present,blue,left,38306.93
1,21,0,horizontal,horizontal,null,null,null,1910.415,null,null,null,null,null,below,IBstimulus_absent,null,null,9691.34
1,21,1,vertical,vertical,null,null,null,2772.23,null,null,null,null,null,above,IBstimulus_absent,null,null,7093.785
1,21,2,vertical,vertical,null,null,null,1431.105,null,null,null,null,null,below,IBstimulus_absent,null,null,5348.85
1,21,3,vertical,vertical,no,red,reportColor,1424.755,3748.585,6623.965,3393.47,3737.175,4624.38,below,IBstimulus_absent,null,null,27258.7
1,22,0,vertical,vertical,null,null,null,4012.27,null,null,null,null,null,below,IBstimulus_absent,null,null,10302.745
1,22,1,vertical,vertical,null,null,null,1610.455,null,null,null,null,null,above,IBstimulus_absent,null,null,9346.055
1,22,2,horizontal,horizontal,null,null,null,1252.735,null,null,null,null,null,below,IBstimulus_absent,null,null,5274.87
1,22,3,vertical,vertical,yes,blue,reportColor,1918.52,3227.46,2938.81,6126.54,3648.365,4578.145,below,IBstimulus_present,blue,right,25862.72
1,23,0,vertical,horizontal,null,null,null,2797.74,null,null,null,null,null,below,IBstimulus_absent,null,null,7841.055
1,23,1,vertical,vertical,null,null,null,1729.945,null,null,null,null,null,below,IBstimulus_absent,null,null,8815.33
1,23,2,vertical,vertical,null,null,null,1769.335,null,null,null,null,null,below,IBstimulus_absent,null,null,5655.4
1,23,3,horizontal,horizontal,yes,blue,reportColor,2377.86,44433.275,2438.305,14416.065,3651.01,4011.515,above,IBstimulus_present,blue,left,74809.805
1,24,0,vertical,null,null,null,null,null,null,null,null,null,null,below,IBstimulus_absent,null,null,
1,24,1,vertical,null,null,null,null,null,null,null,null,null,null,above,IBstimulus_absent,null,null,
1,24,2,vertical,null,null,null,null,null,null,null,null,null,null,below,IBstimulus_absent,null,null,
1,24,3,vertical,null,null,null,reportColor,null,null,null,null,null,null,above,IBstimulus_present,blue,left,
1,25,0,horizontal,horizontal,null,null,null,3289,null,null,null,null,null,below,IBstimulus_absent,null,null,11242
1,25,1,horizontal,horizontal,null,null,null,2867,null,null,null,null,null,above,IBstimulus_absent,null,null,7078
1,25,2,horizontal,horizontal,null,null,null,1653,null,null,null,null,null,above,IBstimulus_absent,null,null,5152
1,25,3,horizontal,horizontal,yes,blue,reportColor,4246,2680,2879,4679,3119,5512,above,IBstimulus_present,blue,left,26861
1,26,0,horizontal,horizontal,null,null,null,3278.295,null,null,null,null,null,below,IBstimulus_absent,null,null,8938.24
1,26,1,vertical,vertical,null,null,null,2308.785,null,null,null,null,null,below,IBstimulus_absent,null,null,11336.03
1,26,2,vertical,vertical,null,null,null,5221.405,null,null,null,null,null,above,IBstimulus_absent,null,null,13812.1
1,26,3,horizontal,horizontal,no,blue,reportColor,1992.64,8191.915,8002.695,6767.14,3875.03,4847.19,above,IBstimulus_present,blue,left,36955.5
1,27,0,vertical,vertical,null,null,null,22055.055,null,null,null,null,null,above,IBstimulus_absent,null,null,45354.06
1,27,1,vertical,vertical,null,null,null,15912.43,null,null,null,null,null,below,IBstimulus_absent,null,null,34518.605
1,27,2,vertical,horizontal,null,null,null,4701.44,null,null,null,null,null,above,IBstimulus_absent,null,null,9053.045
1,27,3,vertical,horizontal,no,blue,reportColor,12668.21,15259.695,51686.98,16079.165,6607.225,7525.415,below,IBstimulus_present,red,left,114278.075
1,28,0,vertical,vertical,null,null,null,3496,null,null,null,null,null,below,IBstimulus_absent,null,null,12250
1,28,1,horizontal,horizontal,null,null,null,2696,null,null,null,null,null,below,IBstimulus_absent,null,null,12101
1,28,2,horizontal,horizontal,null,null,null,2782,null,null,null,null,null,above,IBstimulus_absent,null,null,6804
1,28,3,horizontal,horizontal,yes,blue,reportColor,10379,2626,4862,4395,3404,5621,below,IBstimulus_present,blue,right,35510
1,29,0,horizontal,horizontal,null,null,null,8554.735,null,null,null,null,null,below,IBstimulus_absent,null,null,16125.78
1,29,1,horizontal,horizontal,null,null,null,5437.61,null,null,null,null,null,above,IBstimulus_absent,null,null,14711.52
1,29,2,horizontal,horizontal,null,null,null,3289.21,null,null,null,null,null,above,IBstimulus_absent,null,null,9827.96
1,29,3,vertical,vertical,no,blue,reportColor,3834.715,5853.9,19699.46,11420.59,6039.9,9868.65,below,IBstimulus_present,red,right,61401.37
1,30,0,horizontal,horizontal,null,null,null,4307,null,null,null,null,null,below,IBstimulus_absent,null,null,15439
1,30,1,vertical,vertical,null,null,null,3481,null,null,null,null,null,above,IBstimulus_absent,null,null,8964
1,30,2,horizontal,horizontal,null,null,null,1774,null,null,null,null,null,below,IBstimulus_absent,null,null,4911
1,30,3,vertical,vertical,no,blue,reportColor,1716,4122,11221,6780,3140,4331,below,IBstimulus_absent,null,null,37829
1,31,0,horizontal,horizontal,null,null,null,4373.805,null,null,null,null,null,below,IBstimulus_absent,null,null,13484.21
1,31,1,vertical,vertical,null,null,null,1760.465,null,null,null,null,null,above,IBstimulus_absent,null,null,6348.355
1,31,2,vertical,vertical,null,null,null,4685.03,null,null,null,null,null,above,IBstimulus_absent,null,null,9991.11
1,31,3,vertical,vertical,yes,red,reportColor,2138.475,4448.555,4223.37,6463.3,2962.43,3522.115,above,IBstimulus_present,red,left,31726.525
1,32,0,horizontal,horizontal,null,null,null,3659.835,null,null,null,null,null,above,IBstimulus_absent,null,null,11363.54
1,32,1,horizontal,horizontal,null,null,null,2312.64,null,null,null,null,null,below,IBstimulus_absent,null,null,5400.06
1,32,2,horizontal,horizontal,null,null,null,2049.57,null,null,null,null,null,above,IBstimulus_absent,null,null,4989.78
1,32,3,horizontal,horizontal,yes,red,reportColor,1672.73,6231.545,9116.795,6112.74,4248.615,7357.73,below,IBstimulus_absent,null,null,37594.7
1,33,0,vertical,horizontal,null,null,null,3878.42,null,null,null,null,null,above,IBstimulus_absent,null,null,9975.9
1,33,1,vertical,vertical,null,null,null,2492.08,null,null,null,null,null,below,IBstimulus_absent,null,null,9902.48
1,33,2,vertical,vertical,null,null,null,1809.25,null,null,null,null,null,below,IBstimulus_absent,null,null,5243.15
1,33,3,horizontal,horizontal,no,blue,reportColor,2433.715,4880.845,9737.34,3843.745,3595.145,6554.85,below,IBstimulus_present,blue,right,34127.615
1,34,0,vertical,vertical,null,null,null,2489.82,null,null,null,null,null,above,IBstimulus_absent,null,null,8466.545
1,34,1,vertical,vertical,null,null,null,2651.875,null,null,null,null,null,below,IBstimulus_absent,null,null,6906.525
1,34,2,vertical,vertical,null,null,null,1501.645,null,null,null,null,null,above,IBstimulus_absent,null,null,5249.03
1,34,3,vertical,vertical,no,blue,reportColor,4362.68,5966.565,7690.55,4609.405,5754.405,5373.805,above,IBstimulus_absent,null,null,36642.155
1,35,0,vertical,vertical,null,null,null,6232.04,null,null,null,null,null,above,IBstimulus_absent,null,null,13792.43
1,35,1,horizontal,horizontal,null,null,null,3360.71,null,null,null,null,null,above,IBstimulus_absent,null,null,7590.145
1,35,2,horizontal,horizontal,null,null,null,1713.38,null,null,null,null,null,above,IBstimulus_absent,null,null,5562.395
1,35,3,horizontal,vertical,yes,red,reportColor,5014.225,2650.16,1317.65,3760.815,2188.315,3003.625,above,IBstimulus_present,red,right,21668.01
1,36,0,vertical,horizontal,null,null,null,3897.995,null,null,null,null,null,above,IBstimulus_absent,null,null,10642.1
1,36,1,horizontal,horizontal,null,null,null,2330.545,null,null,null,null,null,above,IBstimulus_absent,null,null,8701.12
1,36,2,horizontal,horizontal,null,null,null,2528.785,null,null,null,null,null,below,IBstimulus_absent,null,null,6233.37
1,36,3,horizontal,horizontal,yes,blue,reportColor,1742.705,7610.03,2767.395,11657.295,3867.79,5266.875,below,IBstimulus_present,blue,left,39031.57
1,37,0,vertical,vertical,null,null,null,3130.96,null,null,null,null,null,below,IBstimulus_absent,null,null,9172.995
1,37,1,horizontal,horizontal,null,null,null,1606.78,null,null,null,null,null,below,IBstimulus_absent,null,null,8483.29
1,37,2,vertical,vertical,null,null,null,1528.67,null,null,null,null,null,below,IBstimulus_absent,null,null,5158.355
1,37,3,vertical,vertical,yes,blue,reportColor,1831.62,4134.405,17813.425,4611.01,2871.89,3937.265,above,IBstimulus_absent,null,null,41844.91
1,38,0,horizontal,horizontal,null,null,null,4185,null,null,null,null,null,above,IBstimulus_absent,null,null,13437
1,38,1,horizontal,horizontal,null,null,null,2474,null,null,null,null,null,below,IBstimulus_absent,null,null,7418
1,38,2,vertical,vertical,null,null,null,2603,null,null,null,null,null,below,IBstimulus_absent,null,null,11866
1,38,3,vertical,vertical,no,blue,reportColor,2373,6705,7453,10836,8317,5272,above,IBstimulus_present,blue,right,45139
1,39,0,vertical,horizontal,null,null,null,3170.16,null,null,null,null,null,below,IBstimulus_absent,null,null,65499.42
1,39,1,horizontal,horizontal,null,null,null,3807.1,null,null,null,null,null,below,IBstimulus_absent,null,null,9165.41
1,39,2,horizontal,horizontal,null,null,null,1502.405,null,null,null,null,null,above,IBstimulus_absent,null,null,4426.285
1,39,3,vertical,vertical,yes,red,reportColor,1818.56,7370.44,8018.105,8098.415,3482.28,4794.515,above,IBstimulus_absent,null,null,36711.765
1,40,0,vertical,vertical,null,null,null,3489.86,null,null,null,null,null,below,IBstimulus_absent,null,null,11082.625
1,40,1,vertical,vertical,null,null,null,2296.59,null,null,null,null,null,above,IBstimulus_absent,null,null,6314.095
1,40,2,vertical,vertical,null,null,null,1966.585,null,null,null,null,null,below,IBstimulus_absent,null,null,5730.19
1,40,3,vertical,vertical,no,blue,reportColor,1706.25,5425.6,7755.62,4753.58,4614.105,4971.64,above,IBstimulus_present,blue,right,32685.31
1,41,0,vertical,horizontal,null,null,null,3286.33,null,null,null,null,null,above,IBstimulus_absent,null,null,7343.415
1,41,1,vertical,vertical,null,null,null,1024.935,null,null,null,null,null,above,IBstimulus_absent,null,null,4620.225
1,41,2,horizontal,horizontal,null,null,null,913.065,null,null,null,null,null,below,IBstimulus_absent,null,null,4087.26
1,41,3,horizontal,horizontal,yes,blue,reportColor,1693.41,2057.89,1607.135,2301.36,2767.32,2341.38,above,IBstimulus_present,blue,left,16002.515
1,42,0,horizontal,horizontal,null,null,null,3328.435,null,null,null,null,null,below,IBstimulus_absent,null,null,9403.525
1,42,1,vertical,vertical,null,null,null,2102.09,null,null,null,null,null,above,IBstimulus_absent,null,null,9160.5
1,42,2,vertical,vertical,null,null,null,1734.205,null,null,null,null,null,above,IBstimulus_absent,null,null,6472.14
1,42,3,horizontal,horizontal,yes,red,reportColor,1841.015,3446.4,2844.235,3878.97,3286.705,4507.595,above,IBstimulus_present,red,right,23454.415
1,43,0,horizontal,horizontal,null,null,null,3797.705,null,null,null,null,null,above,IBstimulus_absent,null,null,12235.595
1,43,1,horizontal,horizontal,null,null,null,6205.71,null,null,null,null,null,below,IBstimulus_absent,null,null,20956.76
1,43,2,horizontal,horizontal,null,null,null,2454.03,null,null,null,null,null,below,IBstimulus_absent,null,null,5846.19
1,43,3,vertical,vertical,no,blue,reportColor,2457.925,6047.645,15512.105,6967.865,5935.3,11479.575,above,IBstimulus_absent,null,null,54442.26
1,44,0,horizontal,horizontal,null,null,null,1532.98,null,null,null,null,null,below,IBstimulus_absent,null,null,17443.085
1,44,1,vertical,vertical,null,null,null,1646.965,null,null,null,null,null,above,IBstimulus_absent,null,null,8892.905
1,44,2,horizontal,horizontal,null,null,null,1420.615,null,null,null,null,null,above,IBstimulus_absent,null,null,5179.17
1,44,3,horizontal,horizontal,no,red,reportColor,1630.33,3856.315,6583.735,6431.325,2860.135,2955.04,below,IBstimulus_absent,null,null,29578.64
1,45,0,horizontal,horizontal,null,null,null,5350,null,null,null,null,null,above,IBstimulus_absent,null,null,17056
1,45,1,vertical,vertical,null,null,null,3538,null,null,null,null,null,below,IBstimulus_absent,null,null,8432
1,45,2,vertical,vertical,null,null,null,2229,null,null,null,null,null,above,IBstimulus_absent,null,null,6194
1,45,3,vertical,vertical,yes,blue,reportColor,1726,4296,2471,6498,4434,5693,below,IBstimulus_present,blue,left,28552
1,46,0,vertical,vertical,null,null,null,3756.005,null,null,null,null,null,above,IBstimulus_absent,null,null,15571.485
1,46,1,horizontal,horizontal,null,null,null,2510.555,null,null,null,null,null,below,IBstimulus_absent,null,null,9127.5
1,46,2,vertical,vertical,null,null,null,3509.45,null,null,null,null,null,above,IBstimulus_absent,null,null,8269.315
1,46,3,vertical,vertical,no,blue,reportColor,2981.545,6095.255,7294.455,9776.145,6651.275,4685.555,above,IBstimulus_absent,null,null,41934.61
1,47,0,horizontal,horizontal,null,null,null,3767,null,null,null,null,null,below,IBstimulus_absent,null,null,9498
1,47,1,horizontal,vertical,null,null,null,3145,null,null,null,null,null,above,IBstimulus_absent,null,null,12273
1,47,2,horizontal,horizontal,null,null,null,1664,null,null,null,null,null,below,IBstimulus_absent,null,null,6137
1,47,3,vertical,vertical,yes,blue,reportColor,2830,5952,9352,6040,4482,4211,below,IBstimulus_absent,null,null,37920
1,48,0,vertical,vertical,null,null,null,3634.485,null,null,null,null,null,above,IBstimulus_absent,null,null,17752.14
1,48,1,horizontal,horizontal,null,null,null,2715.04,null,null,null,null,null,above,IBstimulus_absent,null,null,8045.66
1,48,2,horizontal,horizontal,null,null,null,2270.475,null,null,null,null,null,below,IBstimulus_absent,null,null,5920.555
1,48,3,horizontal,horizontal,no,blue,reportColor,2249.655,7384.775,19482.195,7420.475,4628.58,7037.16,above,IBstimulus_present,red,right,53198.265
1,49,0,vertical,vertical,null,null,null,3273.46,null,null,null,null,null,above,IBstimulus_absent,null,null,14470.255
1,49,1,horizontal,horizontal,null,null,null,2662.15,null,null,null,null,null,below,IBstimulus_absent,null,null,6102.395
1,49,2,vertical,vertical,null,null,null,2079.39,null,null,null,null,null,above,IBstimulus_absent,null,null,5349.135
1,49,3,vertical,vertical,no,red,reportColor,1764.075,5600.405,10004.86,3721.055,3921.13,9514.4,above,IBstimulus_present,red,right,37496.35
1,50,0,horizontal,vertical,null,null,null,3163.63,null,null,null,null,null,above,IBstimulus_absent,null,null,8820.805
1,50,1,horizontal,horizontal,null,null,null,2247.595,null,null,null,null,null,below,IBstimulus_absent,null,null,6763.07
1,50,2,vertical,vertical,null,null,null,1913.09,null,null,null,null,null,above,IBstimulus_absent,null,null,5964.575
1,50,3,horizontal,horizontal,no,red,reportColor,2265.615,4335.35,4169.44,3669.29,3904.18,13037.815,above,IBstimulus_absent,null,null,35300.85
1,51,0,horizontal,horizontal,null,null,null,7071.965,null,null,null,null,null,above,IBstimulus_absent,null,null,16637.705
1,51,1,vertical,vertical,null,null,null,2175.2,null,null,null,null,null,above,IBstimulus_absent,null,null,6461.195
1,51,2,vertical,vertical,null,null,null,2869.28,null,null,null,null,null,below,IBstimulus_absent,null,null,6729.525
1,51,3,vertical,vertical,no,red,reportColor,2416.92,4952.045,7652.525,5013.625,4407.56,5665.5,above,IBstimulus_present,red,right,33609.55
1,52,0,horizontal,horizontal,null,null,null,2988.76,null,null,null,null,null,below,IBstimulus_absent,null,null,8810.43
1,52,1,vertical,vertical,null,null,null,2174.115,null,null,null,null,null,above,IBstimulus_absent,null,null,5905.605
1,52,2,vertical,vertical,null,null,null,1632.83,null,null,null,null,null,above,IBstimulus_absent,null,null,5005.33
1,52,3,horizontal,horizontal,no,blue,reportColor,1966.96,5417.715,7413.83,5607.755,3013.62,4301.76,below,IBstimulus_absent,null,null,31413.605
1,53,0,horizontal,horizontal,null,null,null,3117.985,null,null,null,null,null,above,IBstimulus_absent,null,null,10421.01
1,53,1,vertical,vertical,null,null,null,1932.54,null,null,null,null,null,below,IBstimulus_absent,null,null,5611.9
1,53,2,vertical,vertical,null,null,null,1388.015,null,null,null,null,null,below,IBstimulus_absent,null,null,6354.375
1,53,3,horizontal,horizontal,no,blue,reportColor,1242.34,3949.595,6591.43,9057.325,5105.725,4605.295,below,IBstimulus_present,blue,left,33908.14
1,54,0,horizontal,horizontal,null,null,null,3307.06,null,null,null,null,null,below,IBstimulus_absent,null,null,8677.095
1,54,1,vertical,vertical,null,null,null,2295.585,null,null,null,null,null,above,IBstimulus_absent,null,null,6996.91
1,54,2,vertical,vertical,null,null,null,2108.5,null,null,null,null,null,below,IBstimulus_absent,null,null,4815.935
1,54,3,horizontal,horizontal,no,red,reportColor,1760.665,7859.885,7718.435,4507.57,3639.98,3918.785,below,IBstimulus_absent,null,null,32924.135
1,55,0,horizontal,horizontal,null,null,null,3349.3,null,null,null,null,null,above,IBstimulus_absent,null,null,8899.87
1,55,1,vertical,vertical,null,null,null,2808.595,null,null,null,null,null,below,IBstimulus_absent,null,null,7507.47
1,55,2,vertical,vertical,null,null,null,2195.55,null,null,null,null,null,above,IBstimulus_absent,null,null,6302.97
1,55,3,vertical,horizontal,yes,blue,reportColor,4965.85,3626.535,3062.09,5127.57,4539.165,6262.3,above,IBstimulus_present,blue,left,36303.815
1,56,0,horizontal,horizontal,null,null,null,3151.59,null,null,null,null,null,below,IBstimulus_absent,null,null,12935.445
1,56,1,vertical,vertical,null,null,null,3612.59,null,null,null,null,null,above,IBstimulus_absent,null,null,6690.905
1,56,2,horizontal,horizontal,null,null,null,2227.185,null,null,null,null,null,above,IBstimulus_absent,null,null,5363.73
1,56,3,vertical,vertical,yes,blue,reportColor,2119.555,7927.58,12031.81,8103.075,5041.645,7572.945,below,IBstimulus_absent,null,null,46254.645
1,57,0,horizontal,horizontal,null,null,null,4107.46,null,null,null,null,null,above,IBstimulus_absent,null,null,11422.08
1,57,1,vertical,vertical,null,null,null,2234.645,null,null,null,null,null,below,IBstimulus_absent,null,null,6676.88
1,57,2,vertical,vertical,null,null,null,1882.87,null,null,null,null,null,above,IBstimulus_absent,null,null,5556.7
1,57,3,horizontal,horizontal,yes,red,reportColor,3658.96,4055.215,5086.555,9607.41,3503.85,7359.995,above,IBstimulus_present,red,left,37546.47
1,58,0,horizontal,horizontal,null,null,null,5631,null,null,null,null,null,above,IBstimulus_absent,null,null,17323
1,58,1,horizontal,horizontal,null,null,null,1736,null,null,null,null,null,above,IBstimulus_absent,null,null,8853
1,58,2,vertical,vertical,null,null,null,2286,null,null,null,null,null,below,IBstimulus_absent,null,null,5333
1,58,3,horizontal,vertical,no,blue,reportColor,2113,5928,7697,13457,3982,5665,above,IBstimulus_absent,null,null,42846
1,59,0,vertical,vertical,null,null,null,6560.535,null,null,null,null,null,above,IBstimulus_absent,null,null,28425.725
1,59,1,vertical,vertical,null,null,null,3956.19,null,null,null,null,null,above,IBstimulus_absent,null,null,11491.87
1,59,2,vertical,vertical,null,null,null,3513.29,null,null,null,null,null,above,IBstimulus_absent,null,null,9503.94
1,59,3,vertical,vertical,yes,blue,reportColor,4810.34,5231.42,9611.795,7460.745,4404.5,11194.075,below,IBstimulus_present,blue,right,49391.27
1,60,0,vertical,vertical,null,null,null,3317.32,null,null,null,null,null,below,IBstimulus_absent,null,null,8004.49
1,60,1,vertical,vertical,null,null,null,2722.49,null,null,null,null,null,below,IBstimulus_absent,null,null,7806.415
1,60,2,vertical,vertical,null,null,null,1761.13,null,null,null,null,null,below,IBstimulus_absent,null,null,5067.625
1,60,3,horizontal,horizontal,yes,blue,reportColor,1663.615,3735.66,4037.035,5032.64,4797.605,4249.005,above,IBstimulus_present,blue,right,26545.155
1,61,0,horizontal,horizontal,null,null,null,3706.96,null,null,null,null,null,above,IBstimulus_absent,null,null,9087.38
1,61,1,vertical,vertical,null,null,null,2220.35,null,null,null,null,null,above,IBstimulus_absent,null,null,6374.08
1,61,2,vertical,vertical,null,null,null,2534.37,null,null,null,null,null,below,IBstimulus_absent,null,null,5943.5
1,61,3,vertical,vertical,no,red,reportColor,4676.84,2325.32,3082.635,5220.775,2562.845,4483,above,IBstimulus_absent,null,null,25899.84
1,62,0,vertical,vertical,null,null,null,3326.66,null,null,null,null,null,below,IBstimulus_absent,null,null,9187.43
1,62,1,vertical,vertical,null,null,null,1665.45,null,null,null,null,null,above,IBstimulus_absent,null,null,7254.42
1,62,2,horizontal,horizontal,null,null,null,1819.095,null,null,null,null,null,below,IBstimulus_absent,null,null,5851.055
1,62,3,horizontal,horizontal,no,red,reportColor,1783.895,4449.315,12163.255,4592.82,3800.305,4680.24,below,IBstimulus_absent,null,null,35079.94
1,63,0,horizontal,horizontal,null,null,null,4625.175,null,null,null,null,null,below,IBstimulus_absent,null,null,10461.39
1,63,1,vertical,vertical,null,null,null,3044,null,null,null,null,null,above,IBstimulus_absent,null,null,8630.28
1,63,2,horizontal,horizontal,null,null,null,4025.55,null,null,null,null,null,below,IBstimulus_absent,null,null,7495.08
1,63,3,horizontal,horizontal,no,blue,reportColor,3108.745,6743.2,9022.32,10160.91,3916.675,6838.615,below,IBstimulus_absent,null,null,44157.94
1,64,0,vertical,vertical,null,null,null,3279,null,null,null,null,null,below,IBstimulus_absent,null,null,11505
1,64,1,horizontal,horizontal,null,null,null,2851,null,null,null,null,null,above,IBstimulus_absent,null,null,9169
1,64,2,horizontal,horizontal,null,null,null,2686,null,null,null,null,null,above,IBstimulus_absent,null,null,8966
1,64,3,vertical,vertical,yes,red,reportColor,2298,3173,3195,3733,3960,6179,above,IBstimulus_present,red,left,27812
1,65,0,vertical,vertical,null,null,null,3040,null,null,null,null,null,below,IBstimulus_absent,null,null,10670
1,65,1,horizontal,horizontal,null,null,null,2212,null,null,null,null,null,above,IBstimulus_absent,null,null,7297
1,65,2,horizontal,horizontal,null,null,null,2154,null,null,null,null,null,above,IBstimulus_absent,null,null,15302
1,65,3,horizontal,horizontal,no,blue,reportColor,3401,4751,8391,4888,3976,4352,above,IBstimulus_present,red,right,34183
1,66,0,horizontal,horizontal,null,null,null,8615.625,null,null,null,null,null,below,IBstimulus_absent,null,null,20486.9
1,66,1,vertical,vertical,null,null,null,2425.225,null,null,null,null,null,below,IBstimulus_absent,null,null,7986.595
1,66,2,horizontal,horizontal,null,null,null,2180.04,null,null,null,null,null,above,IBstimulus_absent,null,null,6051.69
1,66,3,vertical,horizontal,no,blue,reportColor,3012.4,8834.49,12296.635,8094.045,5105.51,7421.945,below,IBstimulus_present,red,left,48538.15
1,67,0,vertical,vertical,null,null,null,4404,null,null,null,null,null,above,IBstimulus_absent,null,null,12212
1,67,1,horizontal,horizontal,null,null,null,1777,null,null,null,null,null,below,IBstimulus_absent,null,null,8080
1,67,2,horizontal,horizontal,null,null,null,2113,null,null,null,null,null,above,IBstimulus_absent,null,null,6768
1,67,3,horizontal,horizontal,yes,red,reportColor,2706,3374,7377,5260,3006,5617,below,IBstimulus_present,red,left,30496
1,68,0,horizontal,horizontal,null,null,null,2017.035,null,null,null,null,null,below,IBstimulus_absent,null,null,10183.62
1,68,1,vertical,vertical,null,null,null,1679.575,null,null,null,null,null,below,IBstimulus_absent,null,null,14579.425
1,68,2,horizontal,horizontal,null,null,null,1270.045,null,null,null,null,null,below,IBstimulus_absent,null,null,4838.295
1,68,3,horizontal,horizontal,yes,blue,reportColor,1263.085,3639.17,5733.615,5064.635,3668.005,3886.66,above,IBstimulus_present,blue,left,28153.445
1,69,0,vertical,vertical,null,null,null,2873.755,null,null,null,null,null,above,IBstimulus_absent,null,null,7999.55
1,69,1,vertical,vertical,null,null,null,2010.265,null,null,null,null,null,below,IBstimulus_absent,null,null,5968.35
1,69,2,vertical,vertical,null,null,null,1651.575,null,null,null,null,null,below,IBstimulus_absent,null,null,5941.925
1,69,3,vertical,vertical,yes,red,reportColor,2480.385,3621.93,2233.385,5333.365,3474.405,4483.535,above,IBstimulus_present,red,left,25451.155
1,70,0,horizontal,horizontal,null,null,null,3557.46,null,null,null,null,null,below,IBstimulus_absent,null,null,12577.64
1,70,1,vertical,vertical,null,null,null,1717.345,null,null,null,null,null,above,IBstimulus_absent,null,null,6228.57
1,70,2,horizontal,horizontal,null,null,null,1632.1,null,null,null,null,null,above,IBstimulus_absent,null,null,9734.97
1,70,3,vertical,vertical,yes,blue,reportColor,1085.105,3818.61,6003.51,5517.15,4932.43,5809.765,above,IBstimulus_present,blue,left,35040.52
1,71,0,horizontal,horizontal,null,null,null,2141.795,null,null,null,null,null,above,IBstimulus_absent,null,null,8794.205
1,71,1,vertical,vertical,null,null,null,1559.05,null,null,null,null,null,above,IBstimulus_absent,null,null,5370.9
1,71,2,vertical,vertical,null,null,null,1402.8,null,null,null,null,null,above,IBstimulus_absent,null,null,4580.68
1,71,3,horizontal,horizontal,yes,red,reportColor,1161.925,4857.305,1546.125,3230.475,2854.79,3105.645,below,IBstimulus_present,red,right,19632.87
1,72,0,horizontal,horizontal,null,null,null,3689.575,null,null,null,null,null,below,IBstimulus_absent,null,null,11424.02
1,72,1,horizontal,horizontal,null,null,null,2818.665,null,null,null,null,null,above,IBstimulus_absent,null,null,10002.435
1,72,2,horizontal,horizontal,null,null,null,3684.165,null,null,null,null,null,above,IBstimulus_absent,null,null,7208.885
1,72,3,vertical,vertical,yes,blue,reportColor,4030.925,16593.56,12042.05,8121.145,6356.545,6539.68,below,IBstimulus_present,blue,left,57390.775
1,73,0,vertical,vertical,null,null,null,5461.68,null,null,null,null,null,above,IBstimulus_absent,null,null,12958.21
1,73,1,horizontal,horizontal,null,null,null,2614.735,null,null,null,null,null,above,IBstimulus_absent,null,null,12630.46
1,73,2,horizontal,horizontal,null,null,null,2326.63,null,null,null,null,null,above,IBstimulus_absent,null,null,6883.835
1,73,3,horizontal,horizontal,yes,red,reportColor,5166.06,4488.72,1620.015,7436.22,3385.85,6176.755,above,IBstimulus_present,red,left,39392.195
1,74,0,vertical,vertical,null,null,null,3158.78,null,null,null,null,null,below,IBstimulus_absent,null,null,9438.56
1,74,1,vertical,vertical,null,null,null,2457.905,null,null,null,null,null,above,IBstimulus_absent,null,null,6127.965
1,74,2,horizontal,horizontal,null,null,null,1966.37,null,null,null,null,null,above,IBstimulus_absent,null,null,5589.535
1,74,3,vertical,vertical,yes,blue,reportColor,2027.54,6034.705,6842.8,4542.11,3683,6025.085,above,IBstimulus_present,blue,right,32058.05
1,75,0,horizontal,horizontal,null,null,null,2707.375,null,null,null,null,null,above,IBstimulus_absent,null,null,7162.345
1,75,1,vertical,vertical,null,null,null,1156.525,null,null,null,null,null,above,IBstimulus_absent,null,null,7655.68
1,75,2,vertical,vertical,null,null,null,848.765,null,null,null,null,null,below,IBstimulus_absent,null,null,3561.455
1,75,3,vertical,vertical,no,red,reportColor,1055.85,3102.59,3264.68,3666.565,2456.74,2722.46,above,IBstimulus_absent,null,null,18968.94
1,76,0,vertical,vertical,null,null,null,3065,null,null,null,null,null,above,IBstimulus_absent,null,null,10071
1,76,1,vertical,vertical,null,null,null,1774,null,null,null,null,null,below,IBstimulus_absent,null,null,8498
1,76,2,vertical,vertical,null,null,null,1479,null,null,null,null,null,below,IBstimulus_absent,null,null,5110
1,76,3,vertical,vertical,yes,blue,reportColor,2201,3478,5012,6754,3054,4370,below,IBstimulus_present,blue,right,27692
1,77,0,vertical,vertical,null,null,null,3647.545,null,null,null,null,null,above,IBstimulus_absent,null,null,8904.615
1,77,1,vertical,vertical,null,null,null,1826.5,null,null,null,null,null,below,IBstimulus_absent,null,null,8393.025
1,77,2,horizontal,horizontal,null,null,null,1282.345,null,null,null,null,null,above,IBstimulus_absent,null,null,4301.31
1,77,3,horizontal,horizontal,no,blue,reportColor,1313.765,2986.155,2253.02,4282.71,3301.61,2817.06,above,IBstimulus_absent,null,null,19747.225
1,78,0,horizontal,horizontal,null,null,null,2467.565,null,null,null,null,null,above,IBstimulus_absent,null,null,8381.5
1,78,1,vertical,vertical,null,null,null,2146.805,null,null,null,null,null,below,IBstimulus_absent,null,null,6060.97
1,78,2,horizontal,horizontal,null,null,null,1835.855,null,null,null,null,null,above,IBstimulus_absent,null,null,4975.995
1,78,3,vertical,vertical,yes,red,reportColor,3738.88,3585.515,3116.99,6003.37,2640.67,5012.68,below,IBstimulus_present,red,right,27721.945
1,79,0,vertical,vertical,null,null,null,2936.695,null,null,null,null,null,below,IBstimulus_absent,null,null,8067.06
1,79,1,horizontal,horizontal,null,null,null,2046.485,null,null,null,null,null,below,IBstimulus_absent,null,null,5871.915
1,79,2,vertical,vertical,null,null,null,1652.94,null,null,null,null,null,below,IBstimulus_absent,null,null,4829.335
1,79,3,vertical,vertical,no,red,reportColor,1475.87,5008.07,6171.195,8993.78,3537.545,4179.195,below,IBstimulus_absent,null,null,32579.585
1,80,0,vertical,vertical,null,null,null,4824.355,null,null,null,null,null,below,IBstimulus_absent,null,null,20080.135
1,80,1,vertical,vertical,null,null,null,2551.64,null,null,null,null,null,above,IBstimulus_absent,null,null,7425.625
1,80,2,vertical,vertical,null,null,null,3043.36,null,null,null,null,null,below,IBstimulus_absent,null,null,7574.785
1,80,3,horizontal,horizontal,yes,blue,reportColor,3914.765,5123.82,6598.73,7623.685,4579.735,5003.855,below,IBstimulus_present,blue,right,37006.21
1,81,0,horizontal,horizontal,null,null,null,5760.04,null,null,null,null,null,above,IBstimulus_absent,null,null,15293.565
1,81,1,vertical,vertical,null,null,null,2926.835,null,null,null,null,null,below,IBstimulus_absent,null,null,12644.135
1,81,2,horizontal,horizontal,null,null,null,2738.775,null,null,null,null,null,below,IBstimulus_absent,null,null,7310.66
1,81,3,horizontal,horizontal,yes,blue,reportColor,2608.335,5076.89,7649.245,9513.65,3511.35,5518.615,above,IBstimulus_present,blue,right,38451.545
1,82,0,vertical,vertical,null,null,null,3744.44,null,null,null,null,null,above,IBstimulus_absent,null,null,9997.895
1,82,1,vertical,vertical,null,null,null,1898.395,null,null,null,null,null,above,IBstimulus_absent,null,null,8522.205
1,82,2,vertical,vertical,null,null,null,3350.03,null,null,null,null,null,above,IBstimulus_absent,null,null,8500.245
1,82,3,vertical,horizontal,yes,blue,reportColor,4709.475,3647.185,4998.18,5041.91,3698.59,5983.335,below,IBstimulus_present,blue,left,31829.425
1,83,0,horizontal,horizontal,null,null,null,3526.7,null,null,null,null,null,above,IBstimulus_absent,null,null,10597.03
1,83,1,vertical,vertical,null,null,null,5197.095,null,null,null,null,null,above,IBstimulus_absent,null,null,12699.08
1,83,2,vertical,vertical,null,null,null,2723.815,null,null,null,null,null,above,IBstimulus_absent,null,null,11425.9
1,83,3,horizontal,horizontal,no,red,reportColor,2619.535,5422.095,9877.4,5759.53,4236.34,5873.95,above,IBstimulus_absent,null,null,36925.52
1,84,0,vertical,vertical,null,null,null,2221.69,null,null,null,null,null,above,IBstimulus_absent,null,null,7708.64
1,84,1,horizontal,horizontal,null,null,null,1780.3,null,null,null,null,null,above,IBstimulus_absent,null,null,8083.575
1,84,2,horizontal,horizontal,null,null,null,1269.455,null,null,null,null,null,above,IBstimulus_absent,null,null,4390.24
1,84,3,horizontal,horizontal,yes,blue,reportColor,6454.885,4033.55,1476.125,8153.78,2662.305,3659.135,below,IBstimulus_present,blue,right,29342.285
1,85,0,horizontal,horizontal,null,null,null,4226.555,null,null,null,null,null,above,IBstimulus_absent,null,null,19786.745
1,85,1,horizontal,horizontal,null,null,null,2746.71,null,null,null,null,null,above,IBstimulus_absent,null,null,7503.86
1,85,2,vertical,vertical,null,null,null,3263.2,null,null,null,null,null,above,IBstimulus_absent,null,null,8418.75
1,85,3,horizontal,horizontal,yes,red,reportColor,5547.415,7528.97,12903.17,19546.955,4695.41,10701.13,above,IBstimulus_absent,null,null,64560.625
1,86,0,vertical,vertical,null,null,null,3325,null,null,null,null,null,below,IBstimulus_absent,null,null,12845
1,86,1,vertical,vertical,null,null,null,2258,null,null,null,null,null,above,IBstimulus_absent,null,null,6882
1,86,2,horizontal,horizontal,null,null,null,1547,null,null,null,null,null,above,IBstimulus_absent,null,null,5156
1,86,3,vertical,vertical,yes,red,reportColor,1481,3991,4470,4467,2917,4520,above,IBstimulus_present,blue,right,25019
1,87,0,vertical,vertical,null,null,null,3124.645,null,null,null,null,null,above,IBstimulus_absent,null,null,13558.565
1,87,1,horizontal,horizontal,null,null,null,3416.585,null,null,null,null,null,above,IBstimulus_absent,null,null,18426.525
1,87,2,horizontal,horizontal,null,null,null,3080.77,null,null,null,null,null,below,IBstimulus_absent,null,null,9081.345
1,87,3,horizontal,horizontal,no,red,reportColor,2796.745,4067.035,4280.885,7369.23,4911.36,11901.685,below,IBstimulus_absent,null,null,41654.12
1,88,0,horizontal,horizontal,null,null,null,6193.83,null,null,null,null,null,below,IBstimulus_absent,null,null,12441.725
1,88,1,vertical,vertical,null,null,null,4665.3,null,null,null,null,null,above,IBstimulus_absent,null,null,12437.67
1,88,2,vertical,vertical,null,null,null,7322.495,null,null,null,null,null,below,IBstimulus_absent,null,null,11424.02
1,88,3,vertical,vertical,yes,blue,reportColor,5748.565,6472.545,6321.105,10051.755,4407.505,6790.815,below,IBstimulus_present,blue,right,43445.06
1,89,0,horizontal,horizontal,null,null,null,2383.145,null,null,null,null,null,above,IBstimulus_absent,null,null,8766.77
1,89,1,vertical,vertical,null,null,null,2344.185,null,null,null,null,null,below,IBstimulus_absent,null,null,6861.885
1,89,2,vertical,vertical,null,null,null,1650.545,null,null,null,null,null,above,IBstimulus_absent,null,null,6204.56
1,89,3,horizontal,horizontal,no,red,reportColor,1771.215,3659.955,5807.49,6728.105,2905.15,7273.645,above,IBstimulus_absent,null,null,31678.18
1,90,0,horizontal,horizontal,null,null,null,2305.895,null,null,null,null,null,above,IBstimulus_absent,null,null,7363.29
1,90,1,horizontal,horizontal,null,null,null,1855.125,null,null,null,null,null,below,IBstimulus_absent,null,null,6081.64
1,90,2,vertical,vertical,null,null,null,1535.405,null,null,null,null,null,above,IBstimulus_absent,null,null,4492.12
1,90,3,horizontal,horizontal,no,blue,reportColor,1781.765,3528.255,7269.98,3562.81,3753.005,4164.88,above,IBstimulus_absent,null,null,27163.87
1,91,0,horizontal,horizontal,null,null,null,4940.235,null,null,null,null,null,above,IBstimulus_absent,null,null,17571.83
1,91,1,horizontal,horizontal,null,null,null,4754.75,null,null,null,null,null,above,IBstimulus_absent,null,null,10331.42
1,91,2,horizontal,horizontal,null,null,null,6551.205,null,null,null,null,null,below,IBstimulus_absent,null,null,12580.065
1,91,3,vertical,vertical,no,blue,reportColor,3362.78,18379.505,21168.635,8186.84,5661.205,7768.015,below,IBstimulus_absent,null,null,68454.915
1,92,0,horizontal,horizontal,null,null,null,1476,null,null,null,null,null,below,IBstimulus_absent,null,null,9418
1,92,1,vertical,vertical,null,null,null,2115,null,null,null,null,null,above,IBstimulus_absent,null,null,10936
1,92,2,horizontal,horizontal,null,null,null,1074,null,null,null,null,null,below,IBstimulus_absent,null,null,4945
1,92,3,vertical,vertical,no,blue,reportColor,1104,15956,8406,7526,3716,4475,above,IBstimulus_present,red,right,44489
1,93,0,vertical,vertical,null,null,null,4703.935,null,null,null,null,null,below,IBstimulus_absent,null,null,9761.945
1,93,1,horizontal,horizontal,null,null,null,2258.585,null,null,null,null,null,above,IBstimulus_absent,null,null,9051.61
1,93,2,horizontal,horizontal,null,null,null,2486.52,null,null,null,null,null,above,IBstimulus_absent,null,null,5694.295
1,93,3,vertical,vertical,yes,red,reportColor,3079.34,4549.555,6710.725,7364.24,3269.23,5000.715,below,IBstimulus_present,red,right,33140.145
1,94,0,vertical,vertical,null,null,null,2173.915,null,null,null,null,null,below,IBstimulus_absent,null,null,8017.1
1,94,1,horizontal,horizontal,null,null,null,1276.345,null,null,null,null,null,below,IBstimulus_absent,null,null,4884.665
1,94,2,vertical,vertical,null,null,null,2209.905,null,null,null,null,null,below,IBstimulus_absent,null,null,6414.82
1,94,3,vertical,vertical,no,blue,reportColor,1944.5,2856.03,6161.31,2677.935,2937.795,3063.615,below,IBstimulus_present,blue,left,23022.09
1,95,0,vertical,vertical,null,null,null,3386.905,null,null,null,null,null,below,IBstimulus_absent,null,null,12061.1
1,95,1,vertical,vertical,null,null,null,2587.34,null,null,null,null,null,above,IBstimulus_absent,null,null,6800.85
1,95,2,vertical,vertical,null,null,null,1498.91,null,null,null,null,null,below,IBstimulus_absent,null,null,4619.38
1,95,3,horizontal,horizontal,yes,blue,reportColor,3299.045,3099.255,9364.415,20204.385,3924.855,3015.09,below,IBstimulus_present,blue,left,46226.575
1,96,0,vertical,horizontal,null,null,null,17627.96,null,null,null,null,null,above,IBstimulus_absent,null,null,24086.94
1,96,1,vertical,vertical,null,null,null,17443.06,null,null,null,null,null,below,IBstimulus_absent,null,null,21915.455
1,96,2,vertical,vertical,null,null,null,5952.47,null,null,null,null,null,above,IBstimulus_absent,null,null,10456.6
1,96,3,vertical,vertical,yes,blue,reportColor,2756.505,5117.06,5178.365,8322.755,3686.645,4926.57,below,IBstimulus_present,blue,left,33919.09
1,97,0,horizontal,horizontal,null,null,null,3092.155,null,null,null,null,null,below,IBstimulus_absent,null,null,8362.35
1,97,1,vertical,vertical,null,null,null,1923.64,null,null,null,null,null,below,IBstimulus_absent,null,null,5497.875
1,97,2,horizontal,horizontal,null,null,null,1030.43,null,null,null,null,null,above,IBstimulus_absent,null,null,4238.77
1,97,3,horizontal,horizontal,yes,blue,reportColor,1476.905,3791.84,1690.595,4050.795,3688.835,2883.725,below,IBstimulus_present,blue,left,20552.055
1,98,0,vertical,vertical,null,null,null,2018.75,null,null,null,null,null,above,IBstimulus_absent,null,null,7062.25
1,98,1,vertical,vertical,null,null,null,2096.125,null,null,null,null,null,above,IBstimulus_absent,null,null,6689.59
1,98,2,horizontal,horizontal,null,null,null,2800.71,null,null,null,null,null,below,IBstimulus_absent,null,null,7768.13
1,98,3,horizontal,horizontal,yes,red,reportColor,2732.965,5945.85,2117.275,8399.815,4971.2,3349.515,above,IBstimulus_present,red,right,30806.88
1,99,0,vertical,vertical,null,null,null,2480,null,null,null,null,null,above,IBstimulus_absent,null,null,9694
1,99,1,vertical,vertical,null,null,null,2034,null,null,null,null,null,below,IBstimulus_absent,null,null,5959
1,99,2,horizontal,horizontal,null,null,null,3013,null,null,null,null,null,above,IBstimulus_absent,null,null,6635
1,99,3,vertical,horizontal,yes,red,reportColor,2372,3077,2839,7118,2890,3324,below,IBstimulus_present,red,left,25063
1,100,0,vertical,vertical,null,null,null,2984.38,null,null,null,null,null,below,IBstimulus_absent,null,null,8576.275
1,100,1,horizontal,horizontal,null,null,null,1407.27,null,null,null,null,null,below,IBstimulus_absent,null,null,6879.215
1,100,2,vertical,vertical,null,null,null,1272.08,null,null,null,null,null,below,IBstimulus_absent,null,null,4368
1,100,3,horizontal,horizontal,no,blue,reportColor,993.195,3186.74,6775.415,3358.135,2566.995,3567.315,below,IBstimulus_absent,null,null,23517.77
1,101,0,horizontal,horizontal,null,null,null,3908.3,null,null,null,null,null,above,IBstimulus_absent,null,null,12317.84
1,101,1,horizontal,horizontal,null,null,null,2588.985,null,null,null,null,null,above,IBstimulus_absent,null,null,7758.025
1,101,2,vertical,vertical,null,null,null,2873.07,null,null,null,null,null,below,IBstimulus_absent,null,null,7913.935
1,101,3,vertical,vertical,no,blue,reportColor,2606.515,7164.415,27842.995,21068.745,5004.795,28089.34,above,IBstimulus_absent,null,null,97473.685
1,102,0,horizontal,horizontal,null,null,null,2241.76,null,null,null,null,null,above,IBstimulus_absent,null,null,7465.47
1,102,1,horizontal,horizontal,null,null,null,2012.785,null,null,null,null,null,below,IBstimulus_absent,null,null,11778.91
1,102,2,vertical,vertical,null,null,null,3152.535,null,null,null,null,null,below,IBstimulus_absent,null,null,6171.21
1,102,3,horizontal,horizontal,no,blue,reportColor,2822.08,4703.52,8402.415,6384.06,3331.665,3696.96,above,IBstimulus_absent,null,null,32777.82
1,103,0,vertical,vertical,null,null,null,5451.02,null,null,null,null,null,below,IBstimulus_absent,null,null,10687.85
1,103,1,horizontal,vertical,null,null,null,2615.305,null,null,null,null,null,below,IBstimulus_absent,null,null,6000.255
1,103,2,horizontal,horizontal,null,null,null,3970.465,null,null,null,null,null,above,IBstimulus_absent,null,null,7046.62
1,103,3,vertical,vertical,no,red,reportColor,2639.715,6438.055,10697.575,9155.205,5934.705,6372.455,below,IBstimulus_absent,null,null,44372.735
1,104,0,vertical,vertical,null,null,null,3068,null,null,null,null,null,above,IBstimulus_absent,null,null,8319
1,104,1,vertical,vertical,null,null,null,1846,null,null,null,null,null,below,IBstimulus_absent,null,null,5493
1,104,2,horizontal,horizontal,null,null,null,2008,null,null,null,null,null,below,IBstimulus_absent,null,null,5561
1,104,3,vertical,vertical,no,blue,reportColor,1455,5540,5560,3479,3284,5598,below,IBstimulus_absent,null,null,28088
1,105,0,vertical,vertical,null,null,null,5451.02,null,null,null,null,null,below,IBstimulus_absent,null,null,10687.85
1,105,1,horizontal,vertical,null,null,null,2615.305,null,null,null,null,null,below,IBstimulus_absent,null,null,6000.255
1,105,2,horizontal,horizontal,null,null,null,3970.465,null,null,null,null,null,above,IBstimulus_absent,null,null,7046.62
1,105,3,vertical,vertical,no,red,reportColor,2639.715,6438.055,10697.575,9155.205,5934.705,6372.455,below,IBstimulus_absent,null,null,44372.735
1,106,0,vertical,horizontal,null,null,null,4751.88,null,null,null,null,null,above,IBstimulus_absent,null,null,13250.135
1,106,1,vertical,vertical,null,null,null,3159.45,null,null,null,null,null,below,IBstimulus_absent,null,null,8417.415
1,106,2,horizontal,horizontal,null,null,null,1778.13,null,null,null,null,null,above,IBstimulus_absent,null,null,5824.445
1,106,3,vertical,vertical,no,red,reportColor,2397.195,5083.04,8812.27,3325.355,3347.445,4533.45,above,IBstimulus_absent,null,null,31219.305
1,107,0,vertical,vertical,null,null,null,2896.86,null,null,null,null,null,below,IBstimulus_absent,null,null,9776.205
1,107,1,horizontal,horizontal,null,null,null,2143.77,null,null,null,null,null,above,IBstimulus_absent,null,null,11176.18
1,107,2,vertical,vertical,null,null,null,4540.76,null,null,null,null,null,above,IBstimulus_absent,null,null,8710.92
1,107,3,horizontal,horizontal,yes,red,reportColor,1389.765,3410.68,1707.3,4092.2,2965.45,3448.08,below,IBstimulus_present,red,right,19688.14
1,108,0,horizontal,horizontal,null,null,null,4588.96,null,null,null,null,null,below,IBstimulus_absent,null,null,17059.6
1,108,1,vertical,vertical,null,null,null,3582.41,null,null,null,null,null,below,IBstimulus_absent,null,null,10481.27
1,108,2,horizontal,horizontal,null,null,null,4372.275,null,null,null,null,null,below,IBstimulus_absent,null,null,7349.87
1,108,3,horizontal,horizontal,no,blue,reportColor,3791.995,9474.525,9886.835,5285.45,3993.57,7484.2,below,IBstimulus_absent,null,null,43343.205
1,109,0,horizontal,horizontal,null,null,null,3045.315,null,null,null,null,null,below,IBstimulus_absent,null,null,11247.9
1,109,1,horizontal,horizontal,null,null,null,3403.275,null,null,null,null,null,below,IBstimulus_absent,null,null,9169.2
1,109,2,vertical,vertical,null,null,null,1783.185,null,null,null,null,null,below,IBstimulus_absent,null,null,5743.07
1,109,3,vertical,vertical,yes,blue,reportColor,1624.75,3896.71,6037.38,4459.07,4414.955,3779.95,below,IBstimulus_present,blue,left,27979.51
1,110,0,horizontal,horizontal,null,null,null,3092.155,null,null,null,null,null,below,IBstimulus_absent,null,null,8362.35
1,110,1,vertical,vertical,null,null,null,1923.64,null,null,null,null,null,below,IBstimulus_absent,null,null,5497.875
1,110,2,horizontal,horizontal,null,null,null,1030.43,null,null,null,null,null,above,IBstimulus_absent,null,null,4238.77
1,110,3,horizontal,horizontal,yes,blue,reportColor,1476.905,3791.84,1690.595,4050.795,3688.835,2883.725,below,IBstimulus_present,blue,left,20552.055
1,111,0,vertical,horizontal,null,null,null,4793.175,null,null,null,null,null,below,IBstimulus_absent,null,null,10993.45
1,111,1,horizontal,horizontal,null,null,null,1730.76,null,null,null,null,null,below,IBstimulus_absent,null,null,6321.855
1,111,2,vertical,vertical,null,null,null,1792.03,null,null,null,null,null,below,IBstimulus_absent,null,null,6622.21
1,111,3,horizontal,horizontal,no,blue,reportColor,1495.11,3736.265,5802.545,5109.43,3507.42,4162.85,above,IBstimulus_absent,null,null,27467.915
1,112,0,vertical,vertical,null,null,null,5332.465,null,null,null,null,null,above,IBstimulus_absent,null,null,10961.78
1,112,1,vertical,vertical,null,null,null,4307.22,null,null,null,null,null,above,IBstimulus_absent,null,null,12887.125
1,112,2,vertical,vertical,null,null,null,3876.87,null,null,null,null,null,above,IBstimulus_absent,null,null,8033.885
1,112,3,horizontal,horizontal,no,red,reportColor,3158.64,5906.255,11386.925,7595.75,3923.44,7253.615,above,IBstimulus_present,red,right,42637.705
1,113,0,horizontal,horizontal,null,null,null,4457.44,null,null,null,null,null,below,IBstimulus_absent,null,null,11251.92
1,113,1,horizontal,horizontal,null,null,null,2027.91,null,null,null,null,null,above,IBstimulus_absent,null,null,6957.445
1,113,2,horizontal,horizontal,null,null,null,1338.63,null,null,null,null,null,below,IBstimulus_absent,null,null,4406.93
1,113,3,vertical,vertical,no,blue,reportColor,3144.48,5935.62,7391.775,5951.605,3143.87,3359.635,above,IBstimulus_present,blue,right,31680.71
1,114,0,vertical,vertical,null,null,null,2119.72,null,null,null,null,null,below,IBstimulus_absent,null,null,7208.11
1,114,1,horizontal,horizontal,null,null,null,1711.54,null,null,null,null,null,below,IBstimulus_absent,null,null,10238.25
1,114,2,horizontal,horizontal,null,null,null,2284.07,null,null,null,null,null,above,IBstimulus_absent,null,null,6856.385
1,114,3,horizontal,horizontal,yes,blue,reportColor,2570.76,3598.66,4650.275,7850.03,3629.705,3788.99,above,IBstimulus_present,blue,right,30329.745
1,115,0,vertical,vertical,null,null,null,4054.86,null,null,null,null,null,below,IBstimulus_absent,null,null,19787.965
1,115,1,horizontal,horizontal,null,null,null,3379.055,null,null,null,null,null,above,IBstimulus_absent,null,null,8385.7
1,115,2,vertical,vertical,null,null,null,2918.48,null,null,null,null,null,below,IBstimulus_absent,null,null,8840.035
1,115,3,horizontal,horizontal,yes,blue,reportColor,3361.695,8487.335,18283.595,6488.935,4823.29,7299.155,above,IBstimulus_present,red,right,53026.15
1,116,0,vertical,vertical,null,null,null,3489,null,null,null,null,null,above,IBstimulus_absent,null,null,12682
1,116,1,horizontal,horizontal,null,null,null,1922,null,null,null,null,null,below,IBstimulus_absent,null,null,6741
1,116,2,vertical,vertical,null,null,null,1348,null,null,null,null,null,above,IBstimulus_absent,null,null,4496
1,116,3,vertical,vertical,yes,blue,reportColor,3999,4282,6996,3720,3010,4147,below,IBstimulus_present,blue,left,28827
1,117,0,vertical,vertical,null,null,null,2910,null,null,null,null,null,above,IBstimulus_absent,null,null,7939
1,117,1,horizontal,horizontal,null,null,null,2546,null,null,null,null,null,above,IBstimulus_absent,null,null,9300
1,117,2,vertical,vertical,null,null,null,1986,null,null,null,null,null,above,IBstimulus_absent,null,null,9007
1,117,3,horizontal,horizontal,no,blue,reportColor,2212,4477,5440,3793,2300,3456,above,IBstimulus_absent,null,null,25106
1,118,0,vertical,horizontal,null,null,null,9300.27,null,null,null,null,null,above,IBstimulus_absent,null,null,18707.45
1,118,1,horizontal,horizontal,null,null,null,4024.76,null,null,null,null,null,below,IBstimulus_absent,null,null,14340.44
1,118,2,vertical,vertical,null,null,null,2519.55,null,null,null,null,null,above,IBstimulus_absent,null,null,6493.06
1,118,3,vertical,vertical,no,red,reportColor,3402.895,4733.705,13011.865,14084.76,3374.255,4711.65,above,IBstimulus_present,blue,right,52330.125
1,119,0,vertical,vertical,null,null,null,10537.63,null,null,null,null,null,above,IBstimulus_absent,null,null,16999.7
1,119,1,horizontal,horizontal,null,null,null,2446.25,null,null,null,null,null,above,IBstimulus_absent,null,null,6850.42
1,119,2,vertical,vertical,null,null,null,2711.305,null,null,null,null,null,below,IBstimulus_absent,null,null,6009.3
1,119,3,vertical,vertical,yes,red,reportColor,4201.36,4224.44,2997.285,4165.79,3261.255,5556.12,below,IBstimulus_present,red,right,28257.325
1,120,0,vertical,horizontal,null,null,null,4352.44,null,null,null,null,null,above,IBstimulus_absent,null,null,14162.975
1,120,1,horizontal,horizontal,null,null,null,1503.635,null,null,null,null,null,above,IBstimulus_absent,null,null,7913.825
1,120,2,vertical,vertical,null,null,null,2227.115,null,null,null,null,null,above,IBstimulus_absent,null,null,5838.595
1,120,3,horizontal,horizontal,no,blue,reportColor,1285.985,4998.97,7175.655,5560.17,3615.31,6638.765,above,IBstimulus_absent,null,null,32988.025
1,121,0,vertical,vertical,null,null,null,2735,null,null,null,null,null,above,IBstimulus_absent,null,null,9422
1,121,1,horizontal,horizontal,null,null,null,1036,null,null,null,null,null,below,IBstimulus_absent,null,null,4741
1,121,2,vertical,vertical,null,null,null,975,null,null,null,null,null,above,IBstimulus_absent,null,null,3687
1,121,3,vertical,vertical,yes,blue,reportColor,975,3064,2688,4543,2103,2847,above,IBstimulus_present,blue,left,19755
1,122,0,vertical,vertical,null,null,null,8614.365,null,null,null,null,null,above,IBstimulus_absent,null,null,15045.195
1,122,1,vertical,vertical,null,null,null,4313.01,null,null,null,null,null,above,IBstimulus_absent,null,null,10905.58
1,122,2,horizontal,horizontal,null,null,null,3474.105,null,null,null,null,null,above,IBstimulus_absent,null,null,7113.685
1,122,3,vertical,vertical,yes,blue,reportColor,5549.825,11713.295,12934.125,13500.69,9470.34,8260.455,below,IBstimulus_present,blue,left,65540.76
1,123,0,vertical,vertical,null,null,null,2396.88,null,null,null,null,null,below,IBstimulus_absent,null,null,10096.065
1,123,1,vertical,vertical,null,null,null,1877.02,null,null,null,null,null,below,IBstimulus_absent,null,null,5713.635
1,123,2,horizontal,horizontal,null,null,null,1325.09,null,null,null,null,null,above,IBstimulus_absent,null,null,4213.175
1,123,3,vertical,vertical,no,blue,reportColor,1090.685,5735.1,13334.01,7572.53,3915.115,5189.945,above,IBstimulus_present,red,right,40026.845
1,124,0,vertical,vertical,null,null,null,4147.015,null,null,null,null,null,above,IBstimulus_absent,null,null,9246.305
1,124,1,horizontal,horizontal,null,null,null,2667.34,null,null,null,null,null,above,IBstimulus_absent,null,null,6351.54
1,124,2,horizontal,horizontal,null,null,null,2381.345,null,null,null,null,null,above,IBstimulus_absent,null,null,6930.84
1,124,3,horizontal,horizontal,yes,red,reportColor,5486.13,3872.99,3251.145,5446.535,3914.52,4661.865,below,IBstimulus_present,red,left,31298.985
1,125,0,horizontal,horizontal,null,null,null,3742,null,null,null,null,null,below,IBstimulus_absent,null,null,13223
1,125,1,vertical,vertical,null,null,null,2339,null,null,null,null,null,below,IBstimulus_absent,null,null,17928
1,125,2,vertical,horizontal,null,null,null,2871,null,null,null,null,null,above,IBstimulus_absent,null,null,11366
1,125,3,vertical,horizontal,yes,blue,reportColor,2917,4608,8849,6456,3884,5392,below,IBstimulus_absent,null,null,36285
1,126,0,horizontal,horizontal,null,null,null,2159.97,null,null,null,null,null,above,IBstimulus_absent,null,null,7288.72
1,126,1,horizontal,horizontal,null,null,null,1964.375,null,null,null,null,null,above,IBstimulus_absent,null,null,5988.075
1,126,2,horizontal,horizontal,null,null,null,2575.255,null,null,null,null,null,below,IBstimulus_absent,null,null,6009.9
1,126,3,vertical,vertical,no,blue,reportColor,2010.445,3060.815,4936.915,4213.29,2761.94,4851.225,above,IBstimulus_absent,null,null,25072.305
1,127,0,horizontal,horizontal,null,null,null,5347.11,null,null,null,null,null,below,IBstimulus_absent,null,null,12306.4
1,127,1,vertical,vertical,null,null,null,2275.655,null,null,null,null,null,above,IBstimulus_absent,null,null,9863.63
1,127,2,horizontal,horizontal,null,null,null,1250.2,null,null,null,null,null,above,IBstimulus_absent,null,null,4661.015
1,127,3,horizontal,horizontal,yes,red,reportColor,1621.965,3309.45,5295.11,6247.795,3216.835,3279.8,below,IBstimulus_present,blue,right,26194.575
1,128,0,horizontal,horizontal,null,null,null,4125.81,null,null,null,null,null,below,IBstimulus_absent,null,null,11332.445
1,128,1,horizontal,horizontal,null,null,null,3376.91,null,null,null,null,null,above,IBstimulus_absent,null,null,9580.82
1,128,2,vertical,vertical,null,null,null,2099.52,null,null,null,null,null,above,IBstimulus_absent,null,null,10735.27
1,128,3,vertical,vertical,yes,red,reportColor,4293.05,6973.725,5041.17,6643.62,11968.625,5583.295,below,IBstimulus_present,red,left,43924.775
1,129,0,horizontal,horizontal,null,null,null,2331.155,null,null,null,null,null,above,IBstimulus_absent,null,null,11503.47
1,129,1,horizontal,horizontal,null,null,null,1914.245,null,null,null,null,null,above,IBstimulus_absent,null,null,6730.835
1,129,2,vertical,vertical,null,null,null,1733.82,null,null,null,null,null,below,IBstimulus_absent,null,null,7201.305
1,129,3,horizontal,horizontal,yes,red,reportColor,4234.63,3381.705,4259.68,3771.375,2742.16,3979.445,above,IBstimulus_present,red,right,27947.99
1,130,0,horizontal,horizontal,null,null,null,3137.73,null,null,null,null,null,below,IBstimulus_absent,null,null,12196.83
1,130,1,vertical,vertical,null,null,null,2318.06,null,null,null,null,null,below,IBstimulus_absent,null,null,6577.385
1,130,2,horizontal,horizontal,null,null,null,2175.48,null,null,null,null,null,above,IBstimulus_absent,null,null,6391.355
1,130,3,vertical,vertical,no,blue,reportColor,3199.41,6022.87,12507.6,4669.225,3695.335,4535.78,above,IBstimulus_present,red,left,37973.24
1,131,0,horizontal,horizontal,null,null,null,3658.29,null,null,null,null,null,above,IBstimulus_absent,null,null,22209.635
1,131,1,horizontal,horizontal,null,null,null,2589.195,null,null,null,null,null,below,IBstimulus_absent,null,null,8536.59
1,131,2,horizontal,horizontal,null,null,null,2436.295,null,null,null,null,null,above,IBstimulus_absent,null,null,8850.795
1,131,3,horizontal,horizontal,no,blue,reportColor,2780.575,10700.245,13254.03,9551.105,5946.735,9880.75,below,IBstimulus_absent,null,null,57056.54
1,132,0,horizontal,horizontal,null,null,null,3385,null,null,null,null,null,above,IBstimulus_absent,null,null,15436
1,132,1,horizontal,horizontal,null,null,null,2217,null,null,null,null,null,below,IBstimulus_absent,null,null,6211
1,132,2,vertical,vertical,null,null,null,1735,null,null,null,null,null,below,IBstimulus_absent,null,null,4819
1,132,3,horizontal,horizontal,yes,blue,reportColor,1572,3284,4750,4436,2477,4205,above,IBstimulus_present,blue,right,23682
1,133,0,vertical,vertical,null,null,null,4623.345,null,null,null,null,null,below,IBstimulus_absent,null,null,12308.6
1,133,1,horizontal,horizontal,null,null,null,3174.965,null,null,null,null,null,above,IBstimulus_absent,null,null,8345.855
1,133,2,horizontal,horizontal,null,null,null,2354.495,null,null,null,null,null,below,IBstimulus_absent,null,null,6776.75
1,133,3,horizontal,horizontal,no,red,reportColor,2368.575,6014.73,8868.545,5097.385,4693.835,43729.345,above,IBstimulus_absent,null,null,75372.58
1,134,0,vertical,vertical,null,null,null,2737.35,null,null,null,null,null,above,IBstimulus_absent,null,null,8381.58
1,134,1,vertical,vertical,null,null,null,1798.76,null,null,null,null,null,above,IBstimulus_absent,null,null,5909.22
1,134,2,vertical,vertical,null,null,null,1502.825,null,null,null,null,null,above,IBstimulus_absent,null,null,5303.04
1,134,3,vertical,vertical,yes,blue,reportColor,1537.02,3232.235,6680.88,3799.6,2439.63,5992.56,below,IBstimulus_absent,null,null,27746.775
1,135,0,vertical,vertical,null,null,null,4044.485,null,null,null,null,null,below,IBstimulus_absent,null,null,12443.73
1,135,1,horizontal,vertical,null,null,null,2717.355,null,null,null,null,null,below,IBstimulus_absent,null,null,6467.75
1,135,2,horizontal,vertical,null,null,null,2058.375,null,null,null,null,null,below,IBstimulus_absent,null,null,5456.05
1,135,3,horizontal,horizontal,no,blue,reportColor,1535.235,5534.11,6150.885,3689.595,3356.505,3721.71,below,IBstimulus_absent,null,null,29756.99
1,136,0,horizontal,vertical,null,null,null,3610.775,null,null,null,null,null,below,IBstimulus_absent,null,null,11515.895
1,136,1,vertical,vertical,null,null,null,1537.78,null,null,null,null,null,above,IBstimulus_absent,null,null,6750.315
1,136,2,horizontal,horizontal,null,null,null,1808.7,null,null,null,null,null,above,IBstimulus_absent,null,null,11318.25
1,136,3,vertical,vertical,no,red,reportColor,1503.75,6587.365,2536.84,6054.345,3463.78,3711.63,below,IBstimulus_present,red,left,27439.45
1,137,0,horizontal,horizontal,null,null,null,1830,null,null,null,null,null,below,IBstimulus_absent,null,null,9023
1,137,1,horizontal,horizontal,null,null,null,849,null,null,null,null,null,below,IBstimulus_absent,null,null,3908
1,137,2,horizontal,horizontal,null,null,null,637,null,null,null,null,null,below,IBstimulus_absent,null,null,3101
1,137,3,vertical,vertical,yes,blue,reportColor,1232,1728,1418,3110,2131,2483,below,IBstimulus_present,blue,left,16886
1,138,0,vertical,vertical,null,null,null,4307,null,null,null,null,null,below,IBstimulus_absent,null,null,14872
1,138,1,horizontal,horizontal,null,null,null,2298,null,null,null,null,null,below,IBstimulus_absent,null,null,7572
1,138,2,horizontal,horizontal,null,null,null,1729,null,null,null,null,null,below,IBstimulus_absent,null,null,5814
1,138,3,vertical,vertical,yes,blue,reportColor,2087,8484,6038,8167,3460,3786,above,IBstimulus_absent,null,null,35783
1,139,0,vertical,vertical,null,null,null,3489,null,null,null,null,null,above,IBstimulus_absent,null,null,12682
1,139,1,horizontal,horizontal,null,null,null,1922,null,null,null,null,null,below,IBstimulus_absent,null,null,6741
1,139,2,vertical,vertical,null,null,null,1348,null,null,null,null,null,above,IBstimulus_absent,null,null,4496
1,139,3,vertical,vertical,yes,blue,reportColor,3999,4282,6996,3720,3010,4147,below,IBstimulus_present,blue,left,28827
1,140,0,vertical,vertical,null,null,null,3610,null,null,null,null,null,below,IBstimulus_absent,null,null,11863
1,140,1,horizontal,horizontal,null,null,null,2994,null,null,null,null,null,below,IBstimulus_absent,null,null,10384
1,140,2,horizontal,vertical,null,null,null,4336,null,null,null,null,null,above,IBstimulus_absent,null,null,7762
1,140,3,vertical,vertical,no,blue,reportColor,2206,6063,10662,6210,4590,6166,below,IBstimulus_present,blue,right,39025
1,141,0,vertical,null,null,null,null,null,null,null,null,null,null,below,IBstimulus_absent,null,null,
1,141,1,horizontal,null,null,null,null,null,null,null,null,null,null,above,IBstimulus_absent,null,null,
1,141,2,vertical,null,null,null,null,null,null,null,null,null,null,below,IBstimulus_absent,null,null,
1,141,3,horizontal,null,null,null,reportColor,null,null,null,null,null,null,above,IBstimulus_absent,null,null,
1,142,0,vertical,vertical,null,null,null,5686.785,null,null,null,null,null,above,IBstimulus_absent,null,null,46066.065
1,142,1,vertical,vertical,null,null,null,5545.14,null,null,null,null,null,below,IBstimulus_absent,null,null,16487.865
1,142,2,horizontal,horizontal,null,null,null,3109.275,null,null,null,null,null,above,IBstimulus_absent,null,null,7937.055
1,142,3,horizontal,horizontal,no,blue,reportColor,5227.62,20737.875,11257.68,9881.68,6543.595,13307.655,below,IBstimulus_present,blue,left,72970.835
1,143,0,horizontal,horizontal,null,null,null,3377.97,null,null,null,null,null,above,IBstimulus_absent,null,null,11314.745
1,143,1,vertical,vertical,null,null,null,2322.565,null,null,null,null,null,below,IBstimulus_absent,null,null,6969.385
1,143,2,horizontal,horizontal,null,null,null,4293.235,null,null,null,null,null,below,IBstimulus_absent,null,null,7625.695
1,143,3,vertical,vertical,yes,blue,reportColor,2175.95,10136.84,9291.875,6917.43,3312.005,5889.32,above,IBstimulus_present,red,left,41827.935
1,144,0,horizontal,horizontal,null,null,null,5439.82,null,null,null,null,null,below,IBstimulus_absent,null,null,12973.005
1,144,1,vertical,vertical,null,null,null,2078.44,null,null,null,null,null,above,IBstimulus_absent,null,null,7724.445
1,144,2,vertical,vertical,null,null,null,1639.07,null,null,null,null,null,above,IBstimulus_absent,null,null,5685.07
1,144,3,vertical,vertical,no,blue,reportColor,2152.645,6928.515,10845.07,8400.2,3353.605,6485.82,below,IBstimulus_absent,null,null,41403.45
1,145,0,vertical,vertical,null,null,null,3611.005,null,null,null,null,null,below,IBstimulus_absent,null,null,8923.745
1,145,1,vertical,vertical,null,null,null,2275.915,null,null,null,null,null,below,IBstimulus_absent,null,null,6333.125
1,145,2,vertical,vertical,null,null,null,2344.505,null,null,null,null,null,above,IBstimulus_absent,null,null,6822.77
1,145,3,horizontal,horizontal,yes,red,reportColor,5113.91,3697.75,6547.435,6134.645,3544.23,4309.775,below,IBstimulus_present,red,right,34005.84
1,146,0,horizontal,vertical,null,null,null,1918.02,null,null,null,null,null,above,IBstimulus_absent,null,null,9076.905
1,146,1,vertical,vertical,null,null,null,1583.295,null,null,null,null,null,below,IBstimulus_absent,null,null,5437.425
1,146,2,horizontal,horizontal,null,null,null,1656.045,null,null,null,null,null,above,IBstimulus_absent,null,null,5489.165
1,146,3,horizontal,vertical,no,blue,reportColor,1808.075,6666.71,7996.83,6177.675,2852.88,3788.925,above,IBstimulus_absent,null,null,33883.125
1,147,0,horizontal,horizontal,null,null,null,4588.96,null,null,null,null,null,below,IBstimulus_absent,null,null,17059.6
1,147,1,vertical,vertical,null,null,null,3582.41,null,null,null,null,null,below,IBstimulus_absent,null,null,10481.27
1,147,2,horizontal,horizontal,null,null,null,4372.275,null,null,null,null,null,below,IBstimulus_absent,null,null,7349.87
1,147,3,horizontal,horizontal,no,blue,reportColor,3791.995,9474.525,9886.835,5285.45,3993.57,7484.2,below,IBstimulus_absent,null,null,43343.205
1,148,0,horizontal,horizontal,null,null,null,3619.72,null,null,null,null,null,above,IBstimulus_absent,null,null,13485.195
1,148,1,vertical,vertical,null,null,null,2936.405,null,null,null,null,null,above,IBstimulus_absent,null,null,7712.97
1,148,2,vertical,vertical,null,null,null,2641.625,null,null,null,null,null,above,IBstimulus_absent,null,null,6869.865
1,148,3,vertical,vertical,no,blue,reportColor,2070.54,5339.18,10721.775,5554.47,4680.83,10338.115,above,IBstimulus_present,blue,left,42454.46
1,149,0,vertical,horizontal,null,null,null,6381.15,null,null,null,null,null,above,IBstimulus_absent,null,null,12346.255
1,149,1,horizontal,horizontal,null,null,null,2799.42,null,null,null,null,null,below,IBstimulus_absent,null,null,7464.25
1,149,2,horizontal,horizontal,null,null,null,3226.005,null,null,null,null,null,above,IBstimulus_absent,null,null,7443.185
1,149,3,vertical,vertical,no,blue,reportColor,2368.13,5739.33,9626.445,5651.575,8312.94,19173.53,above,IBstimulus_absent,null,null,55308.61
1,150,0,vertical,vertical,null,null,null,3225.675,null,null,null,null,null,above,IBstimulus_absent,null,null,7986.31
1,150,1,horizontal,horizontal,null,null,null,2560.99,null,null,null,null,null,above,IBstimulus_absent,null,null,17131.025
1,150,2,vertical,vertical,null,null,null,2198.51,null,null,null,null,null,below,IBstimulus_absent,null,null,6970.745
1,150,3,vertical,vertical,no,blue,reportColor,1851.67,5910.865,5321.135,3829.665,3989.09,4822.74,above,IBstimulus_absent,null,null,30110.735
1,151,0,horizontal,horizontal,null,null,null,3372.385,null,null,null,null,null,below,IBstimulus_absent,null,null,8859.82
1,151,1,vertical,vertical,null,null,null,1419.98,null,null,null,null,null,above,IBstimulus_absent,null,null,8913.7
1,151,2,horizontal,horizontal,null,null,null,1596.53,null,null,null,null,null,above,IBstimulus_absent,null,null,4874.905
1,151,3,horizontal,horizontal,yes,red,reportColor,1662.495,2406.815,7165.08,6596.655,2963.68,4072.3,above,IBstimulus_present,red,left,27716.305
1,152,0,horizontal,horizontal,null,null,null,3908.3,null,null,null,null,null,above,IBstimulus_absent,null,null,12317.84
1,152,1,horizontal,horizontal,null,null,null,2588.985,null,null,null,null,null,above,IBstimulus_absent,null,null,7758.025
1,152,2,vertical,vertical,null,null,null,2873.07,null,null,null,null,null,below,IBstimulus_absent,null,null,7913.935
1,152,3,vertical,vertical,no,blue,reportColor,2606.515,7164.415,27842.995,21068.745,5004.795,28089.34,above,IBstimulus_absent,null,null,97473.685
1,153,0,vertical,vertical,null,null,null,4547.525,null,null,null,null,null,above,IBstimulus_absent,null,null,12665.715
1,153,1,horizontal,horizontal,null,null,null,2431.525,null,null,null,null,null,above,IBstimulus_absent,null,null,11874.37
1,153,2,vertical,vertical,null,null,null,3202.465,null,null,null,null,null,above,IBstimulus_absent,null,null,8266.79
1,153,3,vertical,vertical,yes,red,reportColor,2895.11,6620.185,3204.77,5062.98,3913.335,4726.985,below,IBstimulus_present,red,right,30777
1,154,0,horizontal,horizontal,null,null,null,4221.39,null,null,null,null,null,below,IBstimulus_absent,null,null,20494.475
1,154,1,horizontal,horizontal,null,null,null,2590.61,null,null,null,null,null,below,IBstimulus_absent,null,null,12220.86
1,154,2,horizontal,horizontal,null,null,null,2110.69,null,null,null,null,null,above,IBstimulus_absent,null,null,9206.71
1,154,3,vertical,vertical,no,blue,reportColor,2531.105,8758.865,11845.715,5699.765,3933.77,6899.85,below,IBstimulus_present,blue,left,46935.31
1,155,0,vertical,horizontal,null,null,null,5246.42,null,null,null,null,null,above,IBstimulus_absent,null,null,17254.835
1,155,1,vertical,vertical,null,null,null,6293.535,null,null,null,null,null,above,IBstimulus_absent,null,null,12808.9
1,155,2,vertical,vertical,null,null,null,3693.78,null,null,null,null,null,above,IBstimulus_absent,null,null,9584.505
1,155,3,horizontal,horizontal,no,red,reportColor,2970.755,7365.065,8758.52,11049.475,4242.495,5796.71,below,IBstimulus_present,blue,right,45185.71
1,156,0,horizontal,horizontal,null,null,null,4677.14,null,null,null,null,null,above,IBstimulus_absent,null,null,12856.255
1,156,1,vertical,vertical,null,null,null,4079.965,null,null,null,null,null,above,IBstimulus_absent,null,null,8667.3
1,156,2,horizontal,horizontal,null,null,null,1957.01,null,null,null,null,null,above,IBstimulus_absent,null,null,5491.71
1,156,3,horizontal,horizontal,no,blue,reportColor,1805.895,5652.715,13282.875,8028.045,3752.365,3786.095,below,IBstimulus_absent,null,null,39925.17
1,157,0,vertical,vertical,null,null,null,6204.91,null,null,null,null,null,below,IBstimulus_absent,null,null,13315.43
1,157,1,vertical,horizontal,null,null,null,4465.56,null,null,null,null,null,below,IBstimulus_absent,null,null,8549.395
1,157,2,vertical,vertical,null,null,null,4231.225,null,null,null,null,null,above,IBstimulus_absent,null,null,9021.715
1,157,3,vertical,vertical,yes,red,reportColor,1999.005,3825.86,2142.17,6119.39,4403.78,5246.805,above,IBstimulus_present,red,left,26945.07
1,158,0,vertical,vertical,null,null,null,2124,null,null,null,null,null,above,IBstimulus_absent,null,null,9060
1,158,1,vertical,vertical,null,null,null,2091,null,null,null,null,null,above,IBstimulus_absent,null,null,5583
1,158,2,horizontal,horizontal,null,null,null,2197,null,null,null,null,null,below,IBstimulus_absent,null,null,5072
1,158,3,vertical,vertical,yes,blue,reportColor,2337,4219,3021,7349,3941,3520,above,IBstimulus_present,blue,left,27443
1,159,0,vertical,horizontal,null,null,null,4263.54,null,null,null,null,null,above,IBstimulus_absent,null,null,9382.725
1,159,1,horizontal,vertical,null,null,null,1446.245,null,null,null,null,null,below,IBstimulus_absent,null,null,5222.055
1,159,2,vertical,vertical,null,null,null,1663.51,null,null,null,null,null,below,IBstimulus_absent,null,null,4664.695
1,159,3,vertical,vertical,no,blue,reportColor,2193.02,4197.065,7984.465,1956.575,3177.305,3719.275,above,IBstimulus_absent,null,null,26737.835
1,160,0,vertical,vertical,null,null,null,3219.045,null,null,null,null,null,above,IBstimulus_absent,null,null,7996.46
1,160,1,horizontal,horizontal,null,null,null,2211.87,null,null,null,null,null,below,IBstimulus_absent,null,null,6372.095
1,160,2,vertical,vertical,null,null,null,2010.195,null,null,null,null,null,below,IBstimulus_absent,null,null,5864.595
1,160,3,horizontal,horizontal,no,blue,reportColor,2123.57,4235.065,6387.64,2801.65,2911.29,3910.845,above,IBstimulus_absent,null,null,26236.72
1,161,0,horizontal,horizontal,null,null,null,2540.385,null,null,null,null,null,below,IBstimulus_absent,null,null,8229.945
1,161,1,vertical,vertical,null,null,null,1065.85,null,null,null,null,null,below,IBstimulus_absent,null,null,9974.445
1,161,2,horizontal,horizontal,null,null,null,2092.79,null,null,null,null,null,below,IBstimulus_absent,null,null,4892.695
1,161,3,horizontal,horizontal,yes,red,reportColor,1958.095,3813.09,4404.31,6336.55,2870.66,4419.57,above,IBstimulus_present,red,left,28789.905
1,162,0,horizontal,vertical,null,null,null,3843.08,null,null,null,null,null,below,IBstimulus_absent,null,null,10762
1,162,1,horizontal,horizontal,null,null,null,2433.765,null,null,null,null,null,above,IBstimulus_absent,null,null,6921.485
1,162,2,horizontal,horizontal,null,null,null,2492.095,null,null,null,null,null,below,IBstimulus_absent,null,null,5689.675
1,162,3,vertical,vertical,no,blue,reportColor,7638.69,4222.31,14622.85,2760.42,4347,3663.32,above,IBstimulus_absent,null,null,43072.42
1,163,0,vertical,vertical,null,null,null,2425.825,null,null,null,null,null,below,IBstimulus_absent,null,null,13339.705
1,163,1,vertical,vertical,null,null,null,1945.455,null,null,null,null,null,above,IBstimulus_absent,null,null,7595.815
1,163,2,horizontal,horizontal,null,null,null,1724.665,null,null,null,null,null,above,IBstimulus_absent,null,null,5801.475
1,163,3,horizontal,horizontal,no,blue,reportColor,2036.57,7160.85,4113.975,4510.635,5802.355,3942.25,below,IBstimulus_present,blue,right,32240.645
1,164,0,horizontal,vertical,null,null,null,5582.565,null,null,null,null,null,above,IBstimulus_absent,null,null,11173.93
1,164,1,vertical,vertical,null,null,null,2294.655,null,null,null,null,null,below,IBstimulus_absent,null,null,5693.065
1,164,2,horizontal,horizontal,null,null,null,900.625,null,null,null,null,null,below,IBstimulus_absent,null,null,3572.03
1,164,3,vertical,vertical,no,blue,reportColor,1349.81,6860.015,7255.29,4415.62,2547.445,3448.925,below,IBstimulus_absent,null,null,28731.47
1,165,0,vertical,vertical,null,null,null,6407.805,null,null,null,null,null,above,IBstimulus_absent,null,null,20631.375
1,165,1,horizontal,horizontal,null,null,null,2838.84,null,null,null,null,null,above,IBstimulus_absent,null,null,8984.635
1,165,2,horizontal,horizontal,null,null,null,2568.21,null,null,null,null,null,above,IBstimulus_absent,null,null,6674.31
1,165,3,vertical,vertical,yes,red,reportColor,3555.74,6185.855,12259.39,7306.78,5658.035,8879.54,below,IBstimulus_present,blue,left,48019.605
1,166,0,vertical,vertical,null,null,null,4929.695,null,null,null,null,null,below,IBstimulus_absent,null,null,10216.875
1,166,1,vertical,vertical,null,null,null,3109.73,null,null,null,null,null,above,IBstimulus_absent,null,null,6869.175
1,166,2,vertical,vertical,null,null,null,3089.425,null,null,null,null,null,below,IBstimulus_absent,null,null,6114.755
1,166,3,vertical,vertical,no,red,reportColor,2607.575,5137.65,8812.55,7349.455,4104.765,6846.255,above,IBstimulus_absent,null,null,37699.72
1,167,0,horizontal,horizontal,null,null,null,5761.28,null,null,null,null,null,above,IBstimulus_absent,null,null,11107.485
1,167,1,vertical,vertical,null,null,null,1430.255,null,null,null,null,null,below,IBstimulus_absent,null,null,5362.97
1,167,2,vertical,vertical,null,null,null,1604.425,null,null,null,null,null,below,IBstimulus_absent,null,null,5436.385
1,167,3,vertical,vertical,yes,blue,reportColor,1444.355,2671.515,2607.42,3472.545,3038.23,4328.13,below,IBstimulus_present,blue,right,24020.14
1,168,0,vertical,vertical,null,null,null,1484,null,null,null,null,null,below,IBstimulus_absent,null,null,5258.06
1,168,1,vertical,vertical,null,null,null,1357.765,null,null,null,null,null,above,IBstimulus_absent,null,null,4233.855
1,168,2,vertical,vertical,null,null,null,1719.675,null,null,null,null,null,above,IBstimulus_absent,null,null,4297.85
1,168,3,horizontal,horizontal,yes,blue,reportColor,987.855,1774.245,2091.635,2925.195,2651.66,2824.23,below,IBstimulus_present,blue,right,16362.765
1,169,0,vertical,vertical,null,null,null,5315.635,null,null,null,null,null,above,IBstimulus_absent,null,null,13300.775
1,169,1,horizontal,horizontal,null,null,null,2455.915,null,null,null,null,null,below,IBstimulus_absent,null,null,8775.91
1,169,2,vertical,vertical,null,null,null,1931.495,null,null,null,null,null,below,IBstimulus_absent,null,null,5236.135
1,169,3,vertical,vertical,yes,red,reportColor,5406.945,5757.4,5564.045,10499.01,4696.025,8626.62,below,IBstimulus_present,red,left,44037.455
1,170,0,horizontal,horizontal,null,null,null,6509.625,null,null,null,null,null,below,IBstimulus_absent,null,null,50873.67
1,170,1,horizontal,horizontal,null,null,null,3707.265,null,null,null,null,null,below,IBstimulus_absent,null,null,8006.925
1,170,2,horizontal,horizontal,null,null,null,2364.435,null,null,null,null,null,below,IBstimulus_absent,null,null,6265.43
1,170,3,vertical,vertical,yes,red,reportColor,2860.27,8403.23,6840.05,7132.215,6086.28,6457.585,above,IBstimulus_present,red,left,41750.14
1,171,0,vertical,vertical,null,null,null,2668.2,null,null,null,null,null,above,IBstimulus_absent,null,null,7913.795
1,171,1,vertical,horizontal,null,null,null,1672.52,null,null,null,null,null,below,IBstimulus_absent,null,null,7198.035
1,171,2,horizontal,horizontal,null,null,null,2274.32,null,null,null,null,null,below,IBstimulus_absent,null,null,5523.545
1,171,3,vertical,vertical,yes,red,reportColor,3830.12,3452,2693.065,6249.515,3224.17,4090.085,below,IBstimulus_present,red,right,26700.09
1,172,0,vertical,vertical,null,null,null,2753.415,null,null,null,null,null,below,IBstimulus_absent,null,null,7444.46
1,172,1,vertical,vertical,null,null,null,1478.42,null,null,null,null,null,below,IBstimulus_absent,null,null,6788.205
1,172,2,vertical,vertical,null,null,null,1861.585,null,null,null,null,null,below,IBstimulus_absent,null,null,4716.665
1,172,3,horizontal,horizontal,yes,blue,reportColor,1767.415,4234.165,5621.625,4227.705,3175.04,3465.75,above,IBstimulus_present,red,right,25669.085
1,173,0,horizontal,horizontal,null,null,null,8991.95,null,null,null,null,null,below,IBstimulus_absent,null,null,19972.655
1,173,1,horizontal,horizontal,null,null,null,5181.75,null,null,null,null,null,above,IBstimulus_absent,null,null,21393.29
1,173,2,horizontal,horizontal,null,null,null,4847.045,null,null,null,null,null,below,IBstimulus_absent,null,null,13543.22
1,173,3,horizontal,horizontal,no,blue,reportColor,4866.86,8391.475,18855.13,12136.3,14191.24,35856.265,above,IBstimulus_absent,null,null,102697.085
1,174,0,horizontal,horizontal,null,null,null,3511.62,null,null,null,null,null,below,IBstimulus_absent,null,null,8636.62
1,174,1,vertical,vertical,null,null,null,1989.715,null,null,null,null,null,above,IBstimulus_absent,null,null,6008.465
1,174,2,horizontal,horizontal,null,null,null,1583.775,null,null,null,null,null,above,IBstimulus_absent,null,null,4645.495
1,174,3,vertical,vertical,no,blue,reportColor,2241.705,4060,7906.365,7421.94,3069.36,3946.88,below,IBstimulus_absent,null,null,31506.65
1,175,0,horizontal,horizontal,null,null,null,2484,null,null,null,null,null,above,IBstimulus_absent,null,null,12005
1,175,1,horizontal,horizontal,null,null,null,1919,null,null,null,null,null,below,IBstimulus_absent,null,null,6828
1,175,2,horizontal,horizontal,null,null,null,1642,null,null,null,null,null,above,IBstimulus_absent,null,null,4255
1,175,3,vertical,vertical,no,blue,reportColor,1826,13537,8095,14878,4448,4622,above,IBstimulus_present,red,right,51605
1,176,0,vertical,vertical,null,null,null,2729.21,null,null,null,null,null,below,IBstimulus_absent,null,null,7815.87
1,176,1,vertical,vertical,null,null,null,2604.8,null,null,null,null,null,below,IBstimulus_absent,null,null,7822.085
1,176,2,horizontal,horizontal,null,null,null,1341.885,null,null,null,null,null,above,IBstimulus_absent,null,null,4927.965
1,176,3,horizontal,horizontal,no,red,reportColor,1225.195,5447.535,7381.385,5403.305,2677.395,4735.835,below,IBstimulus_present,blue,right,30310.875
1,177,0,horizontal,horizontal,null,null,null,3144.785,null,null,null,null,null,above,IBstimulus_absent,null,null,9134.55
1,177,1,horizontal,horizontal,null,null,null,4395.84,null,null,null,null,null,below,IBstimulus_absent,null,null,9931.605
1,177,2,vertical,vertical,null,null,null,1815.885,null,null,null,null,null,above,IBstimulus_absent,null,null,5084.83
1,177,3,horizontal,horizontal,no,blue,reportColor,1903.5,10654.61,13296.26,12595.665,8147.76,7074.38,below,IBstimulus_absent,null,null,57173.66
1,178,0,vertical,vertical,null,null,null,2741.545,null,null,null,null,null,above,IBstimulus_absent,null,null,9257.845
1,178,1,vertical,vertical,null,null,null,2144.325,null,null,null,null,null,below,IBstimulus_absent,null,null,10179.59
1,178,2,horizontal,horizontal,null,null,null,2764.09,null,null,null,null,null,below,IBstimulus_absent,null,null,5536.855
1,178,3,horizontal,horizontal,no,blue,reportColor,2635.67,3788.93,6873.38,10050.505,3768.225,3489.955,above,IBstimulus_absent,null,null,33800.99
1,179,0,horizontal,horizontal,null,null,null,4770.51,null,null,null,null,null,above,IBstimulus_absent,null,null,10284.15
1,179,1,vertical,vertical,null,null,null,2723.425,null,null,null,null,null,above,IBstimulus_absent,null,null,6667.09
1,179,2,horizontal,horizontal,null,null,null,2152.155,null,null,null,null,null,below,IBstimulus_absent,null,null,5325.835
1,179,3,horizontal,vertical,yes,red,reportColor,4343.695,3822.6,3014.635,8432.465,3325.895,4245.685,below,IBstimulus_present,red,right,30660.705
1,180,0,horizontal,horizontal,null,null,null,2598,null,null,null,null,null,below,IBstimulus_absent,null,null,8822
1,180,1,vertical,vertical,null,null,null,1804,null,null,null,null,null,above,IBstimulus_absent,null,null,6166
1,180,2,horizontal,horizontal,null,null,null,1468,null,null,null,null,null,above,IBstimulus_absent,null,null,10084
1,180,3,horizontal,horizontal,yes,blue,reportColor,2203,3039,1334,7526,3334,3561,below,IBstimulus_present,blue,right,24549
1,181,0,vertical,vertical,null,null,null,8252.73,null,null,null,null,null,below,IBstimulus_absent,null,null,16328.895
1,181,1,horizontal,horizontal,null,null,null,2857.575,null,null,null,null,null,below,IBstimulus_absent,null,null,10203.645
1,181,2,vertical,vertical,null,null,null,3503.08,null,null,null,null,null,above,IBstimulus_absent,null,null,7894.94
1,181,3,vertical,vertical,yes,blue,reportColor,3625.6,7327.64,9303.4,11918.07,4325.91,6235.685,below,IBstimulus_present,blue,left,46079.39
1,182,0,horizontal,horizontal,null,null,null,4364,null,null,null,null,null,below,IBstimulus_absent,null,null,11616
1,182,1,vertical,vertical,null,null,null,3191,null,null,null,null,null,above,IBstimulus_absent,null,null,13104
1,182,2,horizontal,horizontal,null,null,null,1944,null,null,null,null,null,above,IBstimulus_absent,null,null,6849
1,182,3,horizontal,horizontal,yes,blue,reportColor,3014,3194,3538,6703,3325,3724,below,IBstimulus_present,blue,left,27347
1,183,0,horizontal,horizontal,null,null,null,10867,null,null,null,null,null,above,IBstimulus_absent,null,null,19410
1,183,1,vertical,vertical,null,null,null,2557,null,null,null,null,null,above,IBstimulus_absent,null,null,7590
1,183,2,horizontal,horizontal,null,null,null,1597,null,null,null,null,null,below,IBstimulus_absent,null,null,5824
1,183,3,vertical,vertical,no,blue,reportColor,1355,3688,6184,5192,3264,5191,above,IBstimulus_absent,null,null,29952
1,184,0,vertical,vertical,null,null,null,6087,null,null,null,null,null,below,IBstimulus_absent,null,null,11717
1,184,1,horizontal,horizontal,null,null,null,1923,null,null,null,null,null,above,IBstimulus_absent,null,null,6218
1,184,2,horizontal,horizontal,null,null,null,1501,null,null,null,null,null,below,IBstimulus_absent,null,null,5181
1,184,3,horizontal,horizontal,yes,blue,reportColor,4514,3764,7543,6442,3024,6300,below,IBstimulus_present,blue,left,34816
1,185,0,horizontal,horizontal,null,null,null,4341,null,null,null,null,null,below,IBstimulus_absent,null,null,10774
1,185,1,horizontal,vertical,null,null,null,2603,null,null,null,null,null,below,IBstimulus_absent,null,null,8662
1,185,2,vertical,vertical,null,null,null,1569,null,null,null,null,null,above,IBstimulus_absent,null,null,4883
1,185,3,vertical,vertical,no,red,reportColor,1617,4918,8366,4636,3425,3924,above,IBstimulus_absent,null,null,29667
1,186,0,vertical,vertical,null,null,null,5906,null,null,null,null,null,above,IBstimulus_absent,null,null,16240
1,186,1,horizontal,horizontal,null,null,null,3404,null,null,null,null,null,below,IBstimulus_absent,null,null,8398
1,186,2,vertical,vertical,null,null,null,4243,null,null,null,null,null,above,IBstimulus_absent,null,null,9047
1,186,3,vertical,vertical,no,blue,reportColor,3824,14328,13862,12992,6168,7704,below,IBstimulus_absent,null,null,64680
1,187,0,horizontal,horizontal,null,null,null,5503.815,null,null,null,null,null,below,IBstimulus_absent,null,null,13019.055
1,187,1,vertical,vertical,null,null,null,2208.845,null,null,null,null,null,below,IBstimulus_absent,null,null,10452.445
1,187,2,vertical,vertical,null,null,null,2687,null,null,null,null,null,above,IBstimulus_absent,null,null,6660.77
1,187,3,horizontal,horizontal,yes,blue,reportColor,2040.64,4117.535,6289.69,5121.51,4437.34,5577.435,above,IBstimulus_present,blue,left,30927.64
1,188,0,horizontal,horizontal,null,null,null,4426.36,null,null,null,null,null,above,IBstimulus_absent,null,null,18241.555
1,188,1,vertical,vertical,null,null,null,3285.57,null,null,null,null,null,below,IBstimulus_absent,null,null,19251.035
1,188,2,vertical,vertical,null,null,null,2503.055,null,null,null,null,null,above,IBstimulus_absent,null,null,6134.895
1,188,3,vertical,vertical,yes,red,reportColor,5458.67,3710.54,21833.845,5914.17,4783.06,5867.185,above,IBstimulus_present,red,left,50885.7
1,189,0,vertical,horizontal,null,null,null,5259.23,null,null,null,null,null,above,IBstimulus_absent,null,null,10946.455
1,189,1,horizontal,horizontal,null,null,null,2378.17,null,null,null,null,null,below,IBstimulus_absent,null,null,6385.635
1,189,2,horizontal,horizontal,null,null,null,3014.025,null,null,null,null,null,below,IBstimulus_absent,null,null,6504.635
1,189,3,vertical,vertical,no,red,reportColor,2673.675,4676.54,6746.585,5514.985,4743.57,4867.14,above,IBstimulus_absent,null,null,32946.015
1,190,0,horizontal,horizontal,null,null,null,2788.95,null,null,null,null,null,above,IBstimulus_absent,null,null,11572.15
1,190,1,horizontal,horizontal,null,null,null,2321.89,null,null,null,null,null,above,IBstimulus_absent,null,null,7099.12
1,190,2,vertical,vertical,null,null,null,2493.26,null,null,null,null,null,below,IBstimulus_absent,null,null,7130.425
1,190,3,vertical,vertical,no,blue,reportColor,1997.93,3962.52,5050.5,7130.72,4413.945,4324.725,above,IBstimulus_present,blue,right,31623.505
1,191,0,horizontal,horizontal,null,null,null,2622.805,null,null,null,null,null,below,IBstimulus_absent,null,null,27919.54
1,191,1,vertical,vertical,null,null,null,3324.71,null,null,null,null,null,above,IBstimulus_absent,null,null,6854.65
1,191,2,vertical,vertical,null,null,null,1695.37,null,null,null,null,null,below,IBstimulus_absent,null,null,5112.13
1,191,3,horizontal,horizontal,no,blue,reportColor,1522.26,6039.605,10871.7,5509.05,3012.6,4858.285,above,IBstimulus_absent,null,null,35170.63
1,192,0,vertical,vertical,null,null,null,2992.01,null,null,null,null,null,below,IBstimulus_absent,null,null,12016.915
1,192,1,vertical,vertical,null,null,null,1398.195,null,null,null,null,null,below,IBstimulus_absent,null,null,7537.14
1,192,2,horizontal,horizontal,null,null,null,897.95,null,null,null,null,null,above,IBstimulus_absent,null,null,3698.405
1,192,3,vertical,vertical,no,blue,reportColor,1250.485,4069.8,7837.765,4197.59,3103.585,3747.57,below,IBstimulus_absent,null,null,26848.975
1,193,0,horizontal,horizontal,null,null,null,3767.725,null,null,null,null,null,above,IBstimulus_absent,null,null,9117.19
1,193,1,horizontal,horizontal,null,null,null,1779.28,null,null,null,null,null,above,IBstimulus_absent,null,null,5225.83
1,193,2,horizontal,horizontal,null,null,null,2400.87,null,null,null,null,null,below,IBstimulus_absent,null,null,5585.515
1,193,3,horizontal,horizontal,yes,blue,reportColor,1991.415,8929.545,7909.85,5424.92,2815.875,4875.965,below,IBstimulus_absent,null,null,35014.31
1,194,0,vertical,vertical,null,null,null,2750.255,null,null,null,null,null,below,IBstimulus_absent,null,null,9348.82
1,194,1,horizontal,horizontal,null,null,null,2582.93,null,null,null,null,null,above,IBstimulus_absent,null,null,11002.635
1,194,2,vertical,vertical,null,null,null,1925.78,null,null,null,null,null,below,IBstimulus_absent,null,null,5003.505
1,194,3,horizontal,horizontal,yes,red,reportColor,1902.65,4320.575,1858.335,6443.69,4666.015,5368.7,above,IBstimulus_present,red,left,27571.615
1,195,0,vertical,vertical,null,null,null,6404,null,null,null,null,null,above,IBstimulus_absent,null,null,16647
1,195,1,vertical,vertical,null,null,null,2843,null,null,null,null,null,above,IBstimulus_absent,null,null,9264
1,195,2,vertical,vertical,null,null,null,2594,null,null,null,null,null,below,IBstimulus_absent,null,null,7716
1,195,3,vertical,vertical,no,blue,reportColor,3792,6412,21115,10445,4584,7361,above,IBstimulus_absent,null,null,59622
1,196,0,vertical,vertical,null,null,null,5875.69,null,null,null,null,null,above,IBstimulus_absent,null,null,19579.915
1,196,1,horizontal,horizontal,null,null,null,4034.2,null,null,null,null,null,above,IBstimulus_absent,null,null,8945.525
1,196,2,horizontal,horizontal,null,null,null,2999.94,null,null,null,null,null,above,IBstimulus_absent,null,null,7388.835
1,196,3,horizontal,vertical,yes,red,reportColor,6537.225,3471.945,6227.65,5821.795,5823.22,5793.995,above,IBstimulus_present,red,left,38160.375
1,197,0,horizontal,horizontal,null,null,null,3478,null,null,null,null,null,below,IBstimulus_absent,null,null,10737
1,197,1,horizontal,horizontal,null,null,null,2785,null,null,null,null,null,below,IBstimulus_absent,null,null,9706
1,197,2,horizontal,horizontal,null,null,null,3683,null,null,null,null,null,below,IBstimulus_absent,null,null,7416
1,197,3,horizontal,horizontal,no,blue,reportColor,2196,4104,7285,4859,4613,7107,below,IBstimulus_absent,null,null,34181
1,198,0,horizontal,horizontal,null,null,null,9153.375,null,null,null,null,null,above,IBstimulus_absent,null,null,21416.905
1,198,1,horizontal,horizontal,null,null,null,1921.765,null,null,null,null,null,below,IBstimulus_absent,null,null,10800.375
1,198,2,vertical,horizontal,null,null,null,1843.71,null,null,null,null,null,above,IBstimulus_absent,null,null,10512.1
1,198,3,vertical,horizontal,no,blue,reportColor,1753.21,4537.24,10074.26,9388.955,5097.595,7352.97,below,IBstimulus_absent,null,null,42181.935
1,199,0,horizontal,horizontal,null,null,null,3820,null,null,null,null,null,below,IBstimulus_absent,null,null,14984
1,199,1,horizontal,horizontal,null,null,null,2763,null,null,null,null,null,below,IBstimulus_absent,null,null,10171
1,199,2,horizontal,horizontal,null,null,null,1915,null,null,null,null,null,above,IBstimulus_absent,null,null,7255
1,199,3,vertical,vertical,yes,red,reportColor,4130,3935,2944,8854,7425,8698,below,IBstimulus_present,red,left,41013
1,200,0,vertical,null,null,null,null,null,null,null,null,null,null,below,IBstimulus_absent,null,null,
1,200,1,horizontal,null,null,null,null,null,null,null,null,null,null,below,IBstimulus_absent,null,null,
1,200,2,horizontal,null,null,null,null,null,null,null,null,null,null,below,IBstimulus_absent,null,null,
1,200,3,horizontal,null,null,null,reportColor,null,null,null,null,null,null,below,IBstimulus_present,blue,left,
1,201,0,vertical,horizontal,null,null,null,3249.275,null,null,null,null,null,above,IBstimulus_absent,null,null,9375.37
1,201,1,vertical,vertical,null,null,null,4285.665,null,null,null,null,null,above,IBstimulus_absent,null,null,8926.95
1,201,2,vertical,vertical,null,null,null,2282.175,null,null,null,null,null,below,IBstimulus_absent,null,null,5943.06
1,201,3,vertical,vertical,yes,blue,reportColor,3344.155,3255.56,4599.425,4376.655,2927.775,3984.64,above,IBstimulus_present,blue,left,26538.975
1,202,0,horizontal,horizontal,null,null,null,6772,null,null,null,null,null,above,IBstimulus_absent,null,null,21487
1,202,1,horizontal,horizontal,null,null,null,5987,null,null,null,null,null,below,IBstimulus_absent,null,null,11596
