batchNum,subjectID ,trialNum,longerArm,response_longerArm,response_yesNo,response_AFC,AFCquestion,RT_longerArm,RT_yesNo,RT_AFC,RT_IBfamiliarity,RT_age,RT_ishihara,aboveBelow,trialType,IBstimulus_color,IBstimulus_location,trialTime
8,0,0,vertical,vertical,null,null,null,2749,null,null,null,null,null,above,IBstimulus_absent,null,null,10876
8,0,1,horizontal,horizontal,null,null,null,2401,null,null,null,null,null,below,IBstimulus_absent,null,null,8300
8,0,2,horizontal,horizontal,null,null,null,1651,null,null,null,null,null,below,IBstimulus_absent,null,null,5084
8,0,3,horizontal,vertical,yes,blue,reportColor,4172,2958,1304,6255,4603,4467,above,IBstimulus_present,blue,right,26548
8,1,0,vertical,vertical,null,null,null,4166.73,null,null,null,null,null,above,IBstimulus_absent,null,null,10409.795
8,1,1,horizontal,horizontal,null,null,null,3823.975,null,null,null,null,null,above,IBstimulus_absent,null,null,8148.475
8,1,2,horizontal,horizontal,null,null,null,2795.555,null,null,null,null,null,below,IBstimulus_absent,null,null,6715.405
8,1,3,horizontal,horizontal,no,blue,reportColor,2463.73,7552.49,12017.58,6451.3,3886.835,4437.695,below,IBstimulus_absent,null,null,41174.535
8,2,0,horizontal,null,null,null,null,null,null,null,null,null,null,below,IBstimulus_absent,null,null,
8,2,1,horizontal,null,null,null,null,null,null,null,null,null,null,above,IBstimulus_absent,null,null,
8,2,2,vertical,null,null,null,null,null,null,null,null,null,null,below,IBstimulus_absent,null,null,
8,2,3,vertical,null,null,null,reportColor,null,null,null,null,null,null,above,IBstimulus_absent,null,null,
8,3,0,horizontal,horizontal,null,null,null,2835,null,null,null,null,null,below,IBstimulus_absent,null,null,14966
8,3,1,horizontal,horizontal,null,null,null,3341,null,null,null,null,null,below,IBstimulus_absent,null,null,10470
8,3,2,vertical,vertical,null,null,null,2142,null,null,null,null,null,below,IBstimulus_absent,null,null,5476
8,3,3,horizontal,horizontal,no,blue,reportColor,3606,6195,10294,9614,5145,5673,above,IBstimulus_present,blue,left,43795
8,4,0,vertical,vertical,null,null,null,3428.74,null,null,null,null,null,above,IBstimulus_absent,null,null,12883.305
8,4,1,horizontal,horizontal,null,null,null,2831.13,null,null,null,null,null,above,IBstimulus_absent,null,null,8658.95
8,4,2,vertical,vertical,null,null,null,3126.06,null,null,null,null,null,above,IBstimulus_absent,null,null,7036.385
8,4,3,horizontal,horizontal,yes,blue,reportColor,2477.95,5972.215,3730.94,6527.17,3851.385,5655.055,above,IBstimulus_present,blue,left,34253.285
8,5,0,vertical,vertical,null,null,null,3661,null,null,null,null,null,above,IBstimulus_absent,null,null,11744
8,5,1,horizontal,horizontal,null,null,null,2825,null,null,null,null,null,above,IBstimulus_absent,null,null,9896
8,5,2,horizontal,horizontal,null,null,null,2895,null,null,null,null,null,below,IBstimulus_absent,null,null,6287
8,5,3,horizontal,vertical,no,blue,reportColor,4242,7265,9769,5355,4713,9831,below,IBstimulus_present,blue,right,44401
8,6,0,horizontal,horizontal,null,null,null,7355.325,null,null,null,null,null,below,IBstimulus_absent,null,null,18906.485
8,6,1,vertical,vertical,null,null,null,5058.01,null,null,null,null,null,below,IBstimulus_absent,null,null,12156.145
8,6,2,vertical,horizontal,null,null,null,4961.17,null,null,null,null,null,below,IBstimulus_absent,null,null,10762.66
8,6,3,horizontal,horizontal,no,blue,reportColor,5196.225,7871.02,11365.21,10669.745,7928.515,17438.95,above,IBstimulus_absent,null,null,66887.78
8,7,0,horizontal,horizontal,null,null,null,3010.595,null,null,null,null,null,below,IBstimulus_absent,null,null,9232.67
8,7,1,vertical,vertical,null,null,null,2339.185,null,null,null,null,null,below,IBstimulus_absent,null,null,11324.96
8,7,2,vertical,vertical,null,null,null,2007.005,null,null,null,null,null,below,IBstimulus_absent,null,null,5167.785
8,7,3,horizontal,horizontal,no,blue,reportColor,2805.36,4762.135,7926.445,4932.23,3744.2,4253.27,above,IBstimulus_absent,null,null,31626.37
8,8,0,horizontal,horizontal,null,null,null,3992,null,null,null,null,null,above,IBstimulus_absent,null,null,15243
8,8,1,vertical,vertical,null,null,null,1669,null,null,null,null,null,above,IBstimulus_absent,null,null,6176
8,8,2,horizontal,horizontal,null,null,null,1275,null,null,null,null,null,above,IBstimulus_absent,null,null,4879
8,8,3,vertical,vertical,yes,blue,reportColor,4133,3786,1574,4990,3246,6681,below,IBstimulus_present,blue,right,27744
8,9,0,vertical,vertical,null,null,null,3037,null,null,null,null,null,below,IBstimulus_absent,null,null,11356
8,9,1,horizontal,horizontal,null,null,null,1987,null,null,null,null,null,above,IBstimulus_absent,null,null,5667
8,9,2,vertical,vertical,null,null,null,1794,null,null,null,null,null,below,IBstimulus_absent,null,null,5106
8,9,3,horizontal,horizontal,yes,blue,reportColor,1724,4153,6206,6337,3292,5143,below,IBstimulus_present,blue,left,30454
8,10,0,vertical,vertical,null,null,null,3603.16,null,null,null,null,null,below,IBstimulus_absent,null,null,8982.825
8,10,1,vertical,vertical,null,null,null,2664.775,null,null,null,null,null,below,IBstimulus_absent,null,null,6585.405
8,10,2,vertical,vertical,null,null,null,2112.315,null,null,null,null,null,below,IBstimulus_absent,null,null,5875.495
8,10,3,vertical,vertical,yes,red,reportColor,2329.08,3007.22,2549.885,3857.76,3924.435,4135.31,above,IBstimulus_present,red,left,22930.825
8,11,0,vertical,vertical,null,null,null,2990.815,null,null,null,null,null,below,IBstimulus_absent,null,null,6739.625
8,11,1,vertical,vertical,null,null,null,2815.305,null,null,null,null,null,above,IBstimulus_absent,null,null,6207.36
8,11,2,vertical,vertical,null,null,null,2928.535,null,null,null,null,null,below,IBstimulus_absent,null,null,8859.735
8,11,3,horizontal,horizontal,no,blue,reportColor,3181.445,5464.615,2996.41,6606.435,7431.035,13364.025,above,IBstimulus_present,blue,left,42414.49
8,12,0,vertical,null,null,null,null,null,null,null,null,null,null,below,IBstimulus_absent,null,null,
8,12,1,horizontal,null,null,null,null,null,null,null,null,null,null,above,IBstimulus_absent,null,null,
8,12,2,horizontal,null,null,null,null,null,null,null,null,null,null,above,IBstimulus_absent,null,null,
8,12,3,horizontal,null,null,null,reportColor,null,null,null,null,null,null,above,IBstimulus_present,red,right,
8,13,0,vertical,horizontal,null,null,null,5004,null,null,null,null,null,above,IBstimulus_absent,null,null,14963
8,13,1,horizontal,horizontal,null,null,null,2283,null,null,null,null,null,below,IBstimulus_absent,null,null,7614
8,13,2,vertical,vertical,null,null,null,3000,null,null,null,null,null,below,IBstimulus_absent,null,null,7135
8,13,3,horizontal,horizontal,no,blue,reportColor,1760,4256,7287,12424,4519,7136,below,IBstimulus_present,red,right,40561
8,14,0,vertical,vertical,null,null,null,5503.42,null,null,null,null,null,above,IBstimulus_absent,null,null,9812.3
8,14,1,horizontal,horizontal,null,null,null,1329.49,null,null,null,null,null,above,IBstimulus_absent,null,null,8244.75
8,14,2,vertical,vertical,null,null,null,1231,null,null,null,null,null,below,IBstimulus_absent,null,null,4594.115
8,14,3,vertical,vertical,no,blue,reportColor,1901.115,5263.76,5847.39,4406.03,2853.185,3344.28,above,IBstimulus_present,blue,left,26924.655
8,15,0,horizontal,horizontal,null,null,null,2156,null,null,null,null,null,above,IBstimulus_absent,null,null,8750
8,15,1,horizontal,vertical,null,null,null,3417,null,null,null,null,null,above,IBstimulus_absent,null,null,7326
8,15,2,horizontal,horizontal,null,null,null,1863,null,null,null,null,null,above,IBstimulus_absent,null,null,5463
8,15,3,horizontal,horizontal,yes,blue,reportColor,6779,2581,4378,3411,3724,5652,above,IBstimulus_present,blue,left,29784
8,16,0,vertical,vertical,null,null,null,5116,null,null,null,null,null,below,IBstimulus_absent,null,null,13437
8,16,1,horizontal,horizontal,null,null,null,1618,null,null,null,null,null,below,IBstimulus_absent,null,null,11169
8,16,2,vertical,vertical,null,null,null,2167,null,null,null,null,null,below,IBstimulus_absent,null,null,5046
8,16,3,vertical,vertical,no,blue,reportColor,1164,3504,12495,14176,4022,5551,below,IBstimulus_absent,null,null,44026
8,17,0,vertical,null,null,null,null,null,null,null,null,null,null,above,IBstimulus_absent,null,null,
8,17,1,vertical,null,null,null,null,null,null,null,null,null,null,below,IBstimulus_absent,null,null,
8,17,2,vertical,null,null,null,null,null,null,null,null,null,null,below,IBstimulus_absent,null,null,
8,17,3,vertical,null,null,null,reportColor,null,null,null,null,null,null,below,IBstimulus_absent,null,null,
8,18,0,vertical,vertical,null,null,null,2635.085,null,null,null,null,null,below,IBstimulus_absent,null,null,8995.215
8,18,1,vertical,vertical,null,null,null,2014.14,null,null,null,null,null,below,IBstimulus_absent,null,null,6060.76
8,18,2,horizontal,horizontal,null,null,null,2387.29,null,null,null,null,null,above,IBstimulus_absent,null,null,6322.32
8,18,3,vertical,vertical,no,red,reportColor,1865.49,5309.275,7683.385,20136.925,3296.305,6716.005,below,IBstimulus_present,red,right,48627.16
8,19,0,horizontal,horizontal,null,null,null,4803.185,null,null,null,null,null,below,IBstimulus_absent,null,null,12088.705
8,19,1,vertical,vertical,null,null,null,3927.62,null,null,null,null,null,above,IBstimulus_absent,null,null,10437.125
8,19,2,horizontal,horizontal,null,null,null,4159.245,null,null,null,null,null,below,IBstimulus_absent,null,null,8363.33
8,19,3,vertical,vertical,yes,blue,reportColor,7630.695,6561.515,5674.085,10970.24,6529.95,10160.54,below,IBstimulus_present,blue,right,54499.125
8,20,0,vertical,vertical,null,null,null,5357.05,null,null,null,null,null,above,IBstimulus_absent,null,null,17037.83
8,20,1,vertical,vertical,null,null,null,4222.06,null,null,null,null,null,above,IBstimulus_absent,null,null,9029.885
8,20,2,vertical,vertical,null,null,null,3978.98,null,null,null,null,null,below,IBstimulus_absent,null,null,11839.36
8,20,3,horizontal,horizontal,no,blue,reportColor,3398.04,9110.07,13535.715,8891.545,11893.72,18585.42,above,IBstimulus_present,blue,left,68618.645
8,21,0,vertical,null,null,null,null,null,null,null,null,null,null,below,IBstimulus_absent,null,null,
8,21,1,vertical,null,null,null,null,null,null,null,null,null,null,below,IBstimulus_absent,null,null,
8,21,2,horizontal,null,null,null,null,null,null,null,null,null,null,above,IBstimulus_absent,null,null,
8,21,3,horizontal,null,null,null,reportColor,null,null,null,null,null,null,above,IBstimulus_present,red,right,
8,22,0,vertical,vertical,null,null,null,4193.28,null,null,null,null,null,below,IBstimulus_absent,null,null,9049.03
8,22,1,vertical,vertical,null,null,null,3604.585,null,null,null,null,null,above,IBstimulus_absent,null,null,7790.945
8,22,2,vertical,vertical,null,null,null,2702.195,null,null,null,null,null,above,IBstimulus_absent,null,null,6676.795
8,22,3,horizontal,horizontal,no,red,reportColor,2330.16,4475.35,9436.69,4374.25,5054.76,7063.89,above,IBstimulus_absent,null,null,36368.685
8,23,0,vertical,vertical,null,null,null,5350.525,null,null,null,null,null,below,IBstimulus_absent,null,null,15705.3
8,23,1,vertical,vertical,null,null,null,2852.18,null,null,null,null,null,below,IBstimulus_absent,null,null,7578.55
8,23,2,vertical,vertical,null,null,null,2165.85,null,null,null,null,null,below,IBstimulus_absent,null,null,5819.78
8,23,3,horizontal,horizontal,yes,blue,reportColor,2203.385,3753.3,4781.175,4306.805,3532.085,4622.195,above,IBstimulus_present,blue,right,26237.465
8,24,0,horizontal,horizontal,null,null,null,3816.145,null,null,null,null,null,above,IBstimulus_absent,null,null,12222.66
8,24,1,vertical,vertical,null,null,null,4743.675,null,null,null,null,null,below,IBstimulus_absent,null,null,16824.135
8,24,2,vertical,vertical,null,null,null,4349.435,null,null,null,null,null,below,IBstimulus_absent,null,null,8538.965
8,24,3,vertical,horizontal,yes,red,reportColor,4838.94,5799.39,8444.835,11042.605,7545.655,7969.695,below,IBstimulus_present,red,right,48866.73
8,25,0,vertical,vertical,null,null,null,3566.77,null,null,null,null,null,below,IBstimulus_absent,null,null,10212.305
8,25,1,vertical,vertical,null,null,null,2664.555,null,null,null,null,null,above,IBstimulus_absent,null,null,6433.505
8,25,2,vertical,vertical,null,null,null,2136.715,null,null,null,null,null,above,IBstimulus_absent,null,null,5496.325
8,25,3,vertical,vertical,yes,blue,reportColor,2106.365,7687.9,4104.25,9016.33,4188.15,8761.33,above,IBstimulus_present,blue,left,39353.125
8,26,0,vertical,vertical,null,null,null,8681.38,null,null,null,null,null,above,IBstimulus_absent,null,null,21227.615
8,26,1,horizontal,horizontal,null,null,null,2833.88,null,null,null,null,null,above,IBstimulus_absent,null,null,8373.22
8,26,2,vertical,vertical,null,null,null,2728.875,null,null,null,null,null,below,IBstimulus_absent,null,null,6724.314999
8,26,3,horizontal,horizontal,no,red,reportColor,2267.515,10540.425,15756.645,6819.089999,5564.11,6378.444999,above,IBstimulus_absent,null,null,50783.255
8,27,0,horizontal,horizontal,null,null,null,4197.45,null,null,null,null,null,above,IBstimulus_absent,null,null,9752.14
8,27,1,horizontal,horizontal,null,null,null,4938.275,null,null,null,null,null,below,IBstimulus_absent,null,null,8700.835
8,27,2,vertical,vertical,null,null,null,1585.735,null,null,null,null,null,above,IBstimulus_absent,null,null,4410.6
8,27,3,horizontal,horizontal,yes,red,reportColor,3241.94,3198.47,3586.365,5449.15,3434.175,5457.59,below,IBstimulus_present,red,right,27277.76
8,28,0,horizontal,horizontal,null,null,null,4803.185,null,null,null,null,null,below,IBstimulus_absent,null,null,12088.705
8,28,1,vertical,vertical,null,null,null,3927.62,null,null,null,null,null,above,IBstimulus_absent,null,null,10437.125
8,28,2,horizontal,horizontal,null,null,null,4159.245,null,null,null,null,null,below,IBstimulus_absent,null,null,8363.33
8,28,3,vertical,vertical,yes,blue,reportColor,7630.695,6561.515,5674.085,10970.24,6529.95,10160.54,below,IBstimulus_present,blue,right,54499.125
8,29,0,vertical,vertical,null,null,null,5976,null,null,null,null,null,above,IBstimulus_absent,null,null,17217
8,29,1,vertical,vertical,null,null,null,2417,null,null,null,null,null,below,IBstimulus_absent,null,null,6413
8,29,2,vertical,horizontal,null,null,null,2980,null,null,null,null,null,above,IBstimulus_absent,null,null,6947
8,29,3,horizontal,horizontal,yes,red,reportColor,3283,6538,1895,8259,4116,6585,above,IBstimulus_present,red,left,34017
8,30,0,vertical,vertical,null,null,null,5503.42,null,null,null,null,null,above,IBstimulus_absent,null,null,9812.3
8,30,1,horizontal,horizontal,null,null,null,1329.49,null,null,null,null,null,above,IBstimulus_absent,null,null,8244.75
8,30,2,vertical,vertical,null,null,null,1231,null,null,null,null,null,below,IBstimulus_absent,null,null,4594.115
8,30,3,vertical,vertical,no,blue,reportColor,1901.115,5263.76,5847.39,4406.03,2853.185,3344.28,above,IBstimulus_present,blue,left,26924.655
8,31,0,vertical,vertical,null,null,null,3669.24,null,null,null,null,null,below,IBstimulus_absent,null,null,12336.555
8,31,1,horizontal,horizontal,null,null,null,2302.21,null,null,null,null,null,below,IBstimulus_absent,null,null,6864.335
8,31,2,vertical,vertical,null,null,null,2636.155,null,null,null,null,null,below,IBstimulus_absent,null,null,7079.525
8,31,3,vertical,vertical,no,blue,reportColor,3589.525,8256.43,9636.04,9731.215,3961.305,4599.29,below,IBstimulus_absent,null,null,45402.545
8,32,0,horizontal,null,null,null,null,null,null,null,null,null,null,below,IBstimulus_absent,null,null,
8,32,1,vertical,null,null,null,null,null,null,null,null,null,null,above,IBstimulus_absent,null,null,
8,32,2,horizontal,null,null,null,null,null,null,null,null,null,null,below,IBstimulus_absent,null,null,
8,32,3,vertical,null,null,null,reportColor,null,null,null,null,null,null,below,IBstimulus_absent,null,null,
8,33,0,horizontal,horizontal,null,null,null,6083.67,null,null,null,null,null,above,IBstimulus_absent,null,null,12701.265
8,33,1,horizontal,horizontal,null,null,null,3707.155,null,null,null,null,null,above,IBstimulus_absent,null,null,8515.38
8,33,2,vertical,vertical,null,null,null,2515.855,null,null,null,null,null,below,IBstimulus_absent,null,null,6215.785
8,33,3,horizontal,horizontal,yes,blue,reportColor,4024.78,3231.855,2756.165,6001.05,3413.285,4182.395,above,IBstimulus_present,blue,right,27098.705
8,34,0,horizontal,horizontal,null,null,null,3122.355,null,null,null,null,null,above,IBstimulus_absent,null,null,9485.175
8,34,1,vertical,vertical,null,null,null,1591.015,null,null,null,null,null,above,IBstimulus_absent,null,null,6962.875
8,34,2,vertical,vertical,null,null,null,1526.135,null,null,null,null,null,above,IBstimulus_absent,null,null,6248.795
8,34,3,horizontal,horizontal,yes,red,reportColor,2096.295,3648.485,4687.41,22325.96,3419.98,5272.085,below,IBstimulus_present,red,right,45911.44
8,35,0,horizontal,horizontal,null,null,null,5870.88,null,null,null,null,null,above,IBstimulus_absent,null,null,13222.925
8,35,1,vertical,vertical,null,null,null,4403.775,null,null,null,null,null,below,IBstimulus_absent,null,null,15445.28
8,35,2,vertical,vertical,null,null,null,2885.31,null,null,null,null,null,above,IBstimulus_absent,null,null,7295.87
8,35,3,horizontal,horizontal,yes,blue,reportColor,1854.24,3757.875,4366.84,3045.815,4975.35,5923.345,below,IBstimulus_present,red,left,27994.18
8,36,0,vertical,vertical,null,null,null,4350.72,null,null,null,null,null,below,IBstimulus_absent,null,null,15356.63
8,36,1,vertical,horizontal,null,null,null,2356.74,null,null,null,null,null,above,IBstimulus_absent,null,null,7176.8
8,36,2,vertical,vertical,null,null,null,2196.22,null,null,null,null,null,above,IBstimulus_absent,null,null,6604.62
8,36,3,horizontal,horizontal,no,blue,reportColor,1640.01,4935.115,9329.8,2952.085,2667.775,2763.98,above,IBstimulus_present,red,right,35332.4
8,37,0,vertical,vertical,null,null,null,2799.1,null,null,null,null,null,above,IBstimulus_absent,null,null,7755.86
8,37,1,horizontal,horizontal,null,null,null,2223.305,null,null,null,null,null,below,IBstimulus_absent,null,null,5757.42
8,37,2,vertical,vertical,null,null,null,3180.445,null,null,null,null,null,above,IBstimulus_absent,null,null,6073.525
8,37,3,horizontal,horizontal,no,blue,reportColor,1662.335,6020.005,5720.34,6792.485,3115.49,5645.255,below,IBstimulus_absent,null,null,33201.275
8,38,0,vertical,vertical,null,null,null,3085.685,null,null,null,null,null,above,IBstimulus_absent,null,null,11179.61
8,38,1,horizontal,horizontal,null,null,null,3076.04,null,null,null,null,null,below,IBstimulus_absent,null,null,7034.235
8,38,2,horizontal,horizontal,null,null,null,1896.63,null,null,null,null,null,below,IBstimulus_absent,null,null,5598.145
8,38,3,horizontal,horizontal,no,blue,reportColor,2253.915,8122.76,7031.24,6458.35,4117.585,6198.73,below,IBstimulus_absent,null,null,39335.935
8,39,0,vertical,vertical,null,null,null,2510.5,null,null,null,null,null,above,IBstimulus_absent,null,null,16792.82
8,39,1,vertical,vertical,null,null,null,1587.445,null,null,null,null,null,above,IBstimulus_absent,null,null,8354.73
8,39,2,horizontal,horizontal,null,null,null,2123.605,null,null,null,null,null,below,IBstimulus_absent,null,null,6784.08
8,39,3,horizontal,horizontal,no,blue,reportColor,1122.415,4445.31,7365.905,3677.085,4174.37,2659.12,above,IBstimulus_present,red,left,26573.51
8,40,0,vertical,vertical,null,null,null,3299,null,null,null,null,null,above,IBstimulus_absent,null,null,11454
8,40,1,horizontal,horizontal,null,null,null,2270,null,null,null,null,null,below,IBstimulus_absent,null,null,7113
8,40,2,vertical,vertical,null,null,null,3550,null,null,null,null,null,above,IBstimulus_absent,null,null,8988
8,40,3,vertical,vertical,no,blue,reportColor,2508,6016,7284,4973,4135,6122,above,IBstimulus_absent,null,null,34653
8,41,0,vertical,vertical,null,null,null,6401.69,null,null,null,null,null,above,IBstimulus_absent,null,null,12255.05
8,41,1,vertical,vertical,null,null,null,8086.125,null,null,null,null,null,above,IBstimulus_absent,null,null,13158.7
8,41,2,vertical,vertical,null,null,null,2956.4,null,null,null,null,null,below,IBstimulus_absent,null,null,6762.755
8,41,3,vertical,vertical,no,red,reportColor,2511,5320.53,104816.89,4176.295,3869.09,4015.635,below,IBstimulus_absent,null,null,128255.88
8,42,0,horizontal,horizontal,null,null,null,3075.185,null,null,null,null,null,above,IBstimulus_absent,null,null,9368.45
8,42,1,vertical,vertical,null,null,null,2102.335,null,null,null,null,null,below,IBstimulus_absent,null,null,7218.38
8,42,2,horizontal,horizontal,null,null,null,2023.755,null,null,null,null,null,above,IBstimulus_absent,null,null,5397.835
8,42,3,vertical,vertical,yes,blue,reportColor,1613.07,4693.41,4662.82,4679.43,3695.08,5648.155,below,IBstimulus_present,blue,right,28669.42
8,43,0,horizontal,horizontal,null,null,null,5477.72,null,null,null,null,null,above,IBstimulus_absent,null,null,12462.665
8,43,1,vertical,vertical,null,null,null,6777.8,null,null,null,null,null,above,IBstimulus_absent,null,null,14354.83
8,43,2,vertical,vertical,null,null,null,3902.505,null,null,null,null,null,below,IBstimulus_absent,null,null,8099.335
8,43,3,horizontal,horizontal,no,blue,reportColor,4293.925,7247.82,11692.015,13070.965,6085.325,8903.36,below,IBstimulus_present,blue,right,55201.685
8,44,0,vertical,vertical,null,null,null,2717.825,null,null,null,null,null,below,IBstimulus_absent,null,null,8070.235
8,44,1,vertical,vertical,null,null,null,2654.465,null,null,null,null,null,above,IBstimulus_absent,null,null,10431.775
8,44,2,horizontal,horizontal,null,null,null,2628.9,null,null,null,null,null,below,IBstimulus_absent,null,null,6407.015
8,44,3,horizontal,horizontal,no,blue,reportColor,2186.68,5628.105,8743.205,6053.265,4099.105,6669.685,above,IBstimulus_absent,null,null,36934.9
8,45,0,horizontal,horizontal,null,null,null,5721.855,null,null,null,null,null,below,IBstimulus_absent,null,null,124469.315
8,45,1,horizontal,horizontal,null,null,null,2171.635,null,null,null,null,null,below,IBstimulus_absent,null,null,13913.24
8,45,2,horizontal,horizontal,null,null,null,1366.73,null,null,null,null,null,above,IBstimulus_absent,null,null,4628.195
8,45,3,horizontal,horizontal,no,blue,reportColor,2519.51,5032.4,7465.56,7606.565,6282.185,5167.495,above,IBstimulus_present,blue,right,37100.845
8,46,0,horizontal,horizontal,null,null,null,3319.955,null,null,null,null,null,above,IBstimulus_absent,null,null,8559.815
8,46,1,vertical,vertical,null,null,null,5396.2,null,null,null,null,null,below,IBstimulus_absent,null,null,9697.46
8,46,2,vertical,vertical,null,null,null,3518.245,null,null,null,null,null,above,IBstimulus_absent,null,null,7883.965
8,46,3,vertical,vertical,yes,red,reportColor,4555.585,5141.02,5142.2,7681.255,4924.81,6163.75,below,IBstimulus_present,red,right,37149.445
8,47,0,horizontal,horizontal,null,null,null,3075.185,null,null,null,null,null,above,IBstimulus_absent,null,null,9368.45
8,47,1,vertical,vertical,null,null,null,2102.335,null,null,null,null,null,below,IBstimulus_absent,null,null,7218.38
8,47,2,horizontal,horizontal,null,null,null,2023.755,null,null,null,null,null,above,IBstimulus_absent,null,null,5397.835
8,47,3,vertical,vertical,yes,blue,reportColor,1613.07,4693.41,4662.82,4679.43,3695.08,5648.155,below,IBstimulus_present,blue,right,28669.42
8,48,0,horizontal,horizontal,null,null,null,3484.01,null,null,null,null,null,above,IBstimulus_absent,null,null,9680.935
8,48,1,vertical,vertical,null,null,null,3381.63,null,null,null,null,null,above,IBstimulus_absent,null,null,9243.055
8,48,2,vertical,vertical,null,null,null,2292.13,null,null,null,null,null,above,IBstimulus_absent,null,null,5689.925
8,48,3,horizontal,horizontal,no,blue,reportColor,4560.565,8690.205,18472.255,7824.735,3660.18,5339.115,above,IBstimulus_absent,null,null,52009.98
8,49,0,horizontal,vertical,null,null,null,3593,null,null,null,null,null,above,IBstimulus_absent,null,null,12598
8,49,1,vertical,vertical,null,null,null,3225,null,null,null,null,null,below,IBstimulus_absent,null,null,9091
8,49,2,horizontal,horizontal,null,null,null,1336,null,null,null,null,null,below,IBstimulus_absent,null,null,5145
8,49,3,vertical,vertical,yes,blue,reportColor,3047,3945,6015,8560,3158,4082,below,IBstimulus_present,blue,right,33321
8,50,0,vertical,vertical,null,null,null,3558.25,null,null,null,null,null,below,IBstimulus_absent,null,null,17768.72
8,50,1,vertical,vertical,null,null,null,3235,null,null,null,null,null,above,IBstimulus_absent,null,null,9922.51
8,50,2,horizontal,horizontal,null,null,null,2357,null,null,null,null,null,below,IBstimulus_absent,null,null,78438.84
8,50,3,vertical,vertical,no,blue,reportColor,2464.39,4000.9,7984.695,4455.87,3589.48,4248.88,below,IBstimulus_absent,null,null,30165.19
8,51,0,vertical,vertical,null,null,null,3322.375,null,null,null,null,null,below,IBstimulus_absent,null,null,9850.905
8,51,1,horizontal,horizontal,null,null,null,2475.37,null,null,null,null,null,above,IBstimulus_absent,null,null,7356.74
8,51,2,vertical,vertical,null,null,null,2504.86,null,null,null,null,null,above,IBstimulus_absent,null,null,5871.145
8,51,3,horizontal,horizontal,no,blue,reportColor,1897.655,6871.2,8070.575,4958.945,4048.36,4223.24,below,IBstimulus_absent,null,null,33946.12
8,52,0,horizontal,horizontal,null,null,null,3070.84,null,null,null,null,null,above,IBstimulus_absent,null,null,9452.125
8,52,1,vertical,vertical,null,null,null,2035.15,null,null,null,null,null,above,IBstimulus_absent,null,null,7479.765
8,52,2,horizontal,horizontal,null,null,null,2366.58,null,null,null,null,null,above,IBstimulus_absent,null,null,6813.445
8,52,3,horizontal,horizontal,yes,red,reportColor,1729.015,4329.025,5772.595,13230.715,4375.365,5949.885,below,IBstimulus_present,red,left,38331.33
8,53,0,vertical,horizontal,null,null,null,4114.785,null,null,null,null,null,above,IBstimulus_absent,null,null,9490.82
8,53,1,horizontal,horizontal,null,null,null,2616.395,null,null,null,null,null,above,IBstimulus_absent,null,null,6910.615
8,53,2,horizontal,horizontal,null,null,null,1567.74,null,null,null,null,null,above,IBstimulus_absent,null,null,4894.28
8,53,3,vertical,vertical,yes,blue,reportColor,1537.73,3785.065,1426.2,8406.795,2529.835,2981.62,above,IBstimulus_present,blue,right,23756.905
8,54,0,horizontal,horizontal,null,null,null,2333.835,null,null,null,null,null,above,IBstimulus_absent,null,null,9678.055
8,54,1,horizontal,horizontal,null,null,null,2215.725,null,null,null,null,null,below,IBstimulus_absent,null,null,9171.985
8,54,2,horizontal,horizontal,null,null,null,1578.59,null,null,null,null,null,below,IBstimulus_absent,null,null,4723.135
8,54,3,vertical,vertical,yes,red,reportColor,6300.39,4803.715,5215.765,5237.72,4281.87,3195.78,above,IBstimulus_present,red,right,32448.045
8,55,0,vertical,vertical,null,null,null,5078.605,null,null,null,null,null,above,IBstimulus_absent,null,null,15654.245
8,55,1,vertical,vertical,null,null,null,1956.085,null,null,null,null,null,below,IBstimulus_absent,null,null,5709.645
8,55,2,vertical,horizontal,null,null,null,2228.16,null,null,null,null,null,above,IBstimulus_absent,null,null,13906.255
8,55,3,horizontal,horizontal,yes,blue,reportColor,1987.715,3723.755,1911.505,6304.94,3240.38,14052.925,below,IBstimulus_present,blue,left,34871.25
8,56,0,horizontal,horizontal,null,null,null,3009.54,null,null,null,null,null,above,IBstimulus_absent,null,null,7863.87
8,56,1,horizontal,horizontal,null,null,null,2715.1,null,null,null,null,null,below,IBstimulus_absent,null,null,8044.915
8,56,2,horizontal,horizontal,null,null,null,2462.385,null,null,null,null,null,above,IBstimulus_absent,null,null,6212.975
8,56,3,horizontal,horizontal,no,blue,reportColor,3426.24,7464.26,8508.8,10187.75,5902.04,10445.67,above,IBstimulus_absent,null,null,49828.535
8,57,0,horizontal,null,null,null,null,null,null,null,null,null,null,below,IBstimulus_absent,null,null,
8,57,1,horizontal,null,null,null,null,null,null,null,null,null,null,above,IBstimulus_absent,null,null,
8,57,2,vertical,null,null,null,null,null,null,null,null,null,null,below,IBstimulus_absent,null,null,
8,57,3,vertical,null,null,null,reportColor,null,null,null,null,null,null,above,IBstimulus_present,red,right,
8,58,0,horizontal,horizontal,null,null,null,2380.79,null,null,null,null,null,below,IBstimulus_absent,null,null,9565.68
8,58,1,vertical,vertical,null,null,null,2336.02,null,null,null,null,null,above,IBstimulus_absent,null,null,8254.165
8,58,2,horizontal,horizontal,null,null,null,1183.375,null,null,null,null,null,below,IBstimulus_absent,null,null,4663.99
8,58,3,horizontal,horizontal,yes,blue,reportColor,1972.485,3224.42,4552.105,5023.95,2904.205,12105.275,above,IBstimulus_present,blue,left,34132.805
8,59,0,vertical,vertical,null,null,null,7131.905,null,null,null,null,null,above,IBstimulus_absent,null,null,16105.175
8,59,1,vertical,vertical,null,null,null,3926.155,null,null,null,null,null,above,IBstimulus_absent,null,null,11588.07
8,59,2,horizontal,horizontal,null,null,null,2218.42,null,null,null,null,null,above,IBstimulus_absent,null,null,5483.195
8,59,3,horizontal,horizontal,no,blue,reportColor,2008.91,25126.51,17275.5,18326.325,6618.965,9522.585,below,IBstimulus_absent,null,null,82911.84
8,60,0,horizontal,horizontal,null,null,null,3246.62,null,null,null,null,null,below,IBstimulus_absent,null,null,15293.665
8,60,1,vertical,vertical,null,null,null,1978.255,null,null,null,null,null,below,IBstimulus_absent,null,null,9028.17
8,60,2,vertical,vertical,null,null,null,1529.675,null,null,null,null,null,above,IBstimulus_absent,null,null,4766.58
8,60,3,vertical,vertical,no,blue,reportColor,1882.72,4287.405,8919.76,4951.74,2831.775,5559.62,below,IBstimulus_present,blue,right,31499.94
8,61,0,vertical,vertical,null,null,null,3322.375,null,null,null,null,null,below,IBstimulus_absent,null,null,9850.905
8,61,1,horizontal,horizontal,null,null,null,2475.37,null,null,null,null,null,above,IBstimulus_absent,null,null,7356.74
8,61,2,vertical,vertical,null,null,null,2504.86,null,null,null,null,null,above,IBstimulus_absent,null,null,5871.145
8,61,3,horizontal,horizontal,no,blue,reportColor,1897.655,6871.2,8070.575,4958.945,4048.36,4223.24,below,IBstimulus_absent,null,null,33946.12
8,62,0,horizontal,horizontal,null,null,null,3246.62,null,null,null,null,null,below,IBstimulus_absent,null,null,15293.665
8,62,1,vertical,vertical,null,null,null,1978.255,null,null,null,null,null,below,IBstimulus_absent,null,null,9028.17
8,62,2,vertical,vertical,null,null,null,1529.675,null,null,null,null,null,above,IBstimulus_absent,null,null,4766.58
8,62,3,vertical,vertical,no,blue,reportColor,1882.72,4287.405,8919.76,4951.74,2831.775,5559.62,below,IBstimulus_present,blue,right,31499.94
8,63,0,horizontal,vertical,null,null,null,16761.03,null,null,null,null,null,below,IBstimulus_absent,null,null,88304.78
8,63,1,vertical,horizontal,null,null,null,7015.11,null,null,null,null,null,below,IBstimulus_absent,null,null,12870.5
8,63,2,vertical,horizontal,null,null,null,5256.705,null,null,null,null,null,above,IBstimulus_absent,null,null,9389.64
8,63,3,vertical,horizontal,yes,blue,reportColor,4720.215,11264.32,20906.28,13144.72,6294.935,37400.235,below,IBstimulus_absent,null,null,97998.905
8,64,0,horizontal,horizontal,null,null,null,3966.555,null,null,null,null,null,above,IBstimulus_absent,null,null,8968.165
8,64,1,vertical,vertical,null,null,null,1951.15,null,null,null,null,null,below,IBstimulus_absent,null,null,5670.405
8,64,2,vertical,vertical,null,null,null,1872.485,null,null,null,null,null,below,IBstimulus_absent,null,null,4905.88
8,64,3,horizontal,horizontal,no,blue,reportColor,1899.445,5484.345,8122,5181.315,3765.365,4921.075,below,IBstimulus_absent,null,null,32481.34
8,65,0,vertical,vertical,null,null,null,4886.19,null,null,null,null,null,below,IBstimulus_absent,null,null,15177.2
8,65,1,vertical,vertical,null,null,null,3083.195,null,null,null,null,null,below,IBstimulus_absent,null,null,16291.06
8,65,2,vertical,vertical,null,null,null,5072.145,null,null,null,null,null,above,IBstimulus_absent,null,null,8578.69
8,65,3,vertical,vertical,no,red,reportColor,3691.755,7735.145,19809.355,11132.275,5230.945,8344.89,above,IBstimulus_present,red,left,60220.96
8,66,0,horizontal,horizontal,null,null,null,3043,null,null,null,null,null,below,IBstimulus_absent,null,null,12472
8,66,1,horizontal,horizontal,null,null,null,2390,null,null,null,null,null,below,IBstimulus_absent,null,null,8694
8,66,2,horizontal,horizontal,null,null,null,3539,null,null,null,null,null,below,IBstimulus_absent,null,null,6650
8,66,3,vertical,vertical,yes,blue,reportColor,1969,6466,11368,4774,5964,5915,above,IBstimulus_absent,null,null,45158
8,67,0,vertical,vertical,null,null,null,3532.46,null,null,null,null,null,above,IBstimulus_absent,null,null,8606.34
8,67,1,vertical,vertical,null,null,null,2366.985,null,null,null,null,null,above,IBstimulus_absent,null,null,6076.45
8,67,2,horizontal,horizontal,null,null,null,1718.09,null,null,null,null,null,above,IBstimulus_absent,null,null,4710.935
8,67,3,horizontal,horizontal,yes,red,reportColor,4950.51,2292.645,3742.64,4963.61,3845.735,5397.625,below,IBstimulus_present,red,right,28585.58
8,68,0,horizontal,vertical,null,null,null,8415.655,null,null,null,null,null,above,IBstimulus_absent,null,null,19277.655
8,68,1,horizontal,horizontal,null,null,null,5895.29,null,null,null,null,null,above,IBstimulus_absent,null,null,12378.995
8,68,2,vertical,vertical,null,null,null,9391.07,null,null,null,null,null,above,IBstimulus_absent,null,null,14379.76
8,68,3,vertical,horizontal,no,red,reportColor,12910.74,9874.59,9723.01,17987.41,3378.09,8036.005,below,IBstimulus_present,blue,right,68199.015
8,69,0,vertical,vertical,null,null,null,2961.59,null,null,null,null,null,above,IBstimulus_absent,null,null,9736.935
8,69,1,vertical,vertical,null,null,null,1870.625,null,null,null,null,null,below,IBstimulus_absent,null,null,6276.345
8,69,2,horizontal,horizontal,null,null,null,1126.93,null,null,null,null,null,above,IBstimulus_absent,null,null,4407.35
8,69,3,vertical,vertical,yes,red,reportColor,2338.04,5061.965,1147.765,5872.46,4004.78,16660.805,below,IBstimulus_present,red,left,38268.07
8,70,0,horizontal,horizontal,null,null,null,2938.19,null,null,null,null,null,above,IBstimulus_absent,null,null,12741.44
8,70,1,vertical,vertical,null,null,null,3895.625,null,null,null,null,null,below,IBstimulus_absent,null,null,17424.005
8,70,2,vertical,vertical,null,null,null,2366.57,null,null,null,null,null,above,IBstimulus_absent,null,null,7100.34
8,70,3,horizontal,horizontal,yes,red,reportColor,2033.37,6183.53,6247.185,7725.08,10400.115,10925.035,above,IBstimulus_present,red,right,47749.785
8,71,0,vertical,horizontal,null,null,null,4156.035,null,null,null,null,null,above,IBstimulus_absent,null,null,9569.99
8,71,1,vertical,vertical,null,null,null,3143.3,null,null,null,null,null,above,IBstimulus_absent,null,null,10746.045
8,71,2,vertical,vertical,null,null,null,1226.7,null,null,null,null,null,above,IBstimulus_absent,null,null,5089.955
8,71,3,horizontal,horizontal,yes,red,reportColor,1751.195,5278.99,1542.54,6552.065,3724.505,6205.33,below,IBstimulus_present,red,right,32356.975
8,72,0,horizontal,horizontal,null,null,null,3050,null,null,null,null,null,above,IBstimulus_absent,null,null,12972
8,72,1,vertical,vertical,null,null,null,2777,null,null,null,null,null,above,IBstimulus_absent,null,null,9520
8,72,2,horizontal,horizontal,null,null,null,2432,null,null,null,null,null,above,IBstimulus_absent,null,null,6680
8,72,3,horizontal,horizontal,no,blue,reportColor,2405,6872,7405,5914,5560,6276,above,IBstimulus_present,red,right,37910
8,73,0,vertical,vertical,null,null,null,2936,null,null,null,null,null,above,IBstimulus_absent,null,null,12121
8,73,1,vertical,vertical,null,null,null,1611,null,null,null,null,null,below,IBstimulus_absent,null,null,6375
8,73,2,horizontal,horizontal,null,null,null,1409,null,null,null,null,null,above,IBstimulus_absent,null,null,5097
8,73,3,horizontal,horizontal,yes,blue,reportColor,2361,2701,4679,3523,2359,3512,below,IBstimulus_present,blue,right,22489
8,74,0,vertical,vertical,null,null,null,2366.89,null,null,null,null,null,above,IBstimulus_absent,null,null,7564.34
8,74,1,horizontal,horizontal,null,null,null,1440.74,null,null,null,null,null,above,IBstimulus_absent,null,null,5132.095
8,74,2,horizontal,horizontal,null,null,null,2260.71,null,null,null,null,null,above,IBstimulus_absent,null,null,5673.29
8,74,3,horizontal,horizontal,yes,blue,reportColor,7107.255,3353.58,5397.675,4455.29,3665.61,4343.825,above,IBstimulus_present,blue,left,32334.98
8,75,0,horizontal,horizontal,null,null,null,3295.655,null,null,null,null,null,below,IBstimulus_absent,null,null,12664.045
8,75,1,horizontal,vertical,null,null,null,2510.22,null,null,null,null,null,above,IBstimulus_absent,null,null,7164.275
8,75,2,vertical,vertical,null,null,null,2239.3,null,null,null,null,null,above,IBstimulus_absent,null,null,9258.7
8,75,3,horizontal,horizontal,yes,red,reportColor,3056.255,2675.035,1629.6,6320.83,5492.485,4611.58,above,IBstimulus_present,red,left,28532.665
8,76,0,vertical,vertical,null,null,null,2366.89,null,null,null,null,null,above,IBstimulus_absent,null,null,7564.34
8,76,1,horizontal,horizontal,null,null,null,1440.74,null,null,null,null,null,above,IBstimulus_absent,null,null,5132.095
8,76,2,horizontal,horizontal,null,null,null,2260.71,null,null,null,null,null,above,IBstimulus_absent,null,null,5673.29
8,76,3,horizontal,horizontal,yes,blue,reportColor,7107.255,3353.58,5397.675,4455.29,3665.61,4343.825,above,IBstimulus_present,blue,left,32334.98
8,77,0,vertical,vertical,null,null,null,6054.88,null,null,null,null,null,above,IBstimulus_absent,null,null,11230
8,77,1,vertical,vertical,null,null,null,2243.225,null,null,null,null,null,below,IBstimulus_absent,null,null,8556.915
8,77,2,horizontal,horizontal,null,null,null,1595.38,null,null,null,null,null,above,IBstimulus_absent,null,null,5134.93
8,77,3,vertical,vertical,no,blue,reportColor,4400.69,6247.705,8007.61,3887.34,3703.68,4167.425,above,IBstimulus_absent,null,null,33814.48
8,78,0,vertical,horizontal,null,null,null,2432.81,null,null,null,null,null,below,IBstimulus_absent,null,null,10664.405
8,78,1,vertical,vertical,null,null,null,1428.125,null,null,null,null,null,below,IBstimulus_absent,null,null,6836.555
8,78,2,vertical,horizontal,null,null,null,3461.365,null,null,null,null,null,above,IBstimulus_absent,null,null,6343.35
8,78,3,horizontal,horizontal,no,blue,reportColor,2487.935,4763.37,7650.095,9078.295,3060.655,5531.765,below,IBstimulus_absent,null,null,35664.085
8,79,0,horizontal,horizontal,null,null,null,3025.03,null,null,null,null,null,below,IBstimulus_absent,null,null,10005.1
8,79,1,vertical,vertical,null,null,null,3245.64,null,null,null,null,null,below,IBstimulus_absent,null,null,9877.65
8,79,2,horizontal,horizontal,null,null,null,2363.515,null,null,null,null,null,below,IBstimulus_absent,null,null,6759.37
8,79,3,horizontal,horizontal,no,blue,reportColor,2395.72,4208.1,8544.045,4599.04,4376.395,8519.665,below,IBstimulus_present,blue,left,36739.77
8,80,0,vertical,horizontal,null,null,null,4131.64,null,null,null,null,null,above,IBstimulus_absent,null,null,9818.4
8,80,1,vertical,vertical,null,null,null,1764.85,null,null,null,null,null,above,IBstimulus_absent,null,null,5834.785
8,80,2,vertical,vertical,null,null,null,1530.485,null,null,null,null,null,below,IBstimulus_absent,null,null,5989.795
8,80,3,vertical,vertical,no,blue,reportColor,1195.725,4502.975,10528.055,4191.245,2872.745,4324.975,below,IBstimulus_absent,null,null,32596.215
8,81,0,horizontal,vertical,null,null,null,4678,null,null,null,null,null,above,IBstimulus_absent,null,null,22945
8,81,1,vertical,vertical,null,null,null,3108,null,null,null,null,null,below,IBstimulus_absent,null,null,6197
8,81,2,horizontal,horizontal,null,null,null,2557,null,null,null,null,null,above,IBstimulus_absent,null,null,6143
8,81,3,vertical,vertical,yes,red,reportColor,3088,4858,3591,6068,3010,5070,above,IBstimulus_present,red,right,28559
8,82,0,vertical,horizontal,null,null,null,6844.85,null,null,null,null,null,above,IBstimulus_absent,null,null,13998.43
8,82,1,horizontal,horizontal,null,null,null,2179.28,null,null,null,null,null,below,IBstimulus_absent,null,null,8078.625
8,82,2,vertical,vertical,null,null,null,2085.385,null,null,null,null,null,above,IBstimulus_absent,null,null,15320.875
8,82,3,horizontal,horizontal,no,blue,reportColor,2984.06,5408.365,3759.98,7680.605,3487.91,5056.37,above,IBstimulus_present,blue,left,37604.145
8,83,0,horizontal,vertical,null,null,null,4435.755,null,null,null,null,null,above,IBstimulus_absent,null,null,20144.07
8,83,1,horizontal,horizontal,null,null,null,5179.63,null,null,null,null,null,below,IBstimulus_absent,null,null,9933.13
8,83,2,vertical,vertical,null,null,null,3531.49,null,null,null,null,null,above,IBstimulus_absent,null,null,8040.145
8,83,3,vertical,vertical,no,blue,reportColor,4401.24,8684.505,8648.285,6809.915,4898.72,5897.72,above,IBstimulus_present,blue,right,43801.1
8,84,0,horizontal,horizontal,null,null,null,5352,null,null,null,null,null,below,IBstimulus_absent,null,null,13411
8,84,1,vertical,vertical,null,null,null,2012,null,null,null,null,null,above,IBstimulus_absent,null,null,6356
8,84,2,vertical,vertical,null,null,null,2953,null,null,null,null,null,below,IBstimulus_absent,null,null,10576
8,84,3,horizontal,horizontal,no,blue,reportColor,2403,3937,9887,4535,4000,7223,below,IBstimulus_absent,null,null,35092
8,85,0,vertical,vertical,null,null,null,4188,null,null,null,null,null,below,IBstimulus_absent,null,null,8980
8,85,1,horizontal,horizontal,null,null,null,2392,null,null,null,null,null,above,IBstimulus_absent,null,null,23900
8,85,2,horizontal,horizontal,null,null,null,1977,null,null,null,null,null,above,IBstimulus_absent,null,null,5220
8,85,3,vertical,horizontal,yes,blue,reportColor,4460,3257,1737,7542,2768,8085,above,IBstimulus_present,blue,left,31005
8,86,0,horizontal,horizontal,null,null,null,5870.88,null,null,null,null,null,above,IBstimulus_absent,null,null,13222.925
8,86,1,vertical,vertical,null,null,null,4403.775,null,null,null,null,null,below,IBstimulus_absent,null,null,15445.28
8,86,2,vertical,vertical,null,null,null,2885.31,null,null,null,null,null,above,IBstimulus_absent,null,null,7295.87
8,86,3,horizontal,horizontal,yes,blue,reportColor,1854.24,3757.875,4366.84,3045.815,4975.35,5923.345,below,IBstimulus_present,red,left,27994.18
8,87,0,vertical,vertical,null,null,null,4796.175,null,null,null,null,null,below,IBstimulus_absent,null,null,11579.205
8,87,1,horizontal,horizontal,null,null,null,3126.42,null,null,null,null,null,below,IBstimulus_absent,null,null,7641.04
8,87,2,horizontal,horizontal,null,null,null,3209.14,null,null,null,null,null,below,IBstimulus_absent,null,null,8013.8
8,87,3,vertical,vertical,no,blue,reportColor,3005.62,5988.345,10094.985,6902.545,3111.185,5551.325,below,IBstimulus_present,red,right,39023.31
8,88,0,horizontal,horizontal,null,null,null,3104.975,null,null,null,null,null,below,IBstimulus_absent,null,null,7953.61
8,88,1,vertical,vertical,null,null,null,1486.34,null,null,null,null,null,above,IBstimulus_absent,null,null,5405.42
8,88,2,horizontal,horizontal,null,null,null,1845.52,null,null,null,null,null,below,IBstimulus_absent,null,null,5090.925
8,88,3,horizontal,horizontal,no,red,reportColor,2271.915,4409.98,3967.05,2943.12,3929.21,2976.17,below,IBstimulus_present,red,right,23835.975
8,89,0,vertical,null,null,null,null,null,null,null,null,null,null,below,IBstimulus_absent,null,null,
8,89,1,vertical,null,null,null,null,null,null,null,null,null,null,below,IBstimulus_absent,null,null,
8,89,2,horizontal,null,null,null,null,null,null,null,null,null,null,above,IBstimulus_absent,null,null,
8,89,3,horizontal,null,null,null,reportColor,null,null,null,null,null,null,above,IBstimulus_absent,null,null,
8,90,0,vertical,vertical,null,null,null,2929.39,null,null,null,null,null,below,IBstimulus_absent,null,null,8803.695
8,90,1,horizontal,horizontal,null,null,null,2630.01,null,null,null,null,null,below,IBstimulus_absent,null,null,8321.2
8,90,2,horizontal,horizontal,null,null,null,2600.54,null,null,null,null,null,above,IBstimulus_absent,null,null,6581.645
8,90,3,horizontal,vertical,yes,blue,reportColor,4047.605,2865.19,4874.48,5087.28,3433.37,3878.165,below,IBstimulus_present,blue,left,27420.77
8,91,0,vertical,null,null,null,null,null,null,null,null,null,null,below,IBstimulus_absent,null,null,
8,91,1,vertical,null,null,null,null,null,null,null,null,null,null,below,IBstimulus_absent,null,null,
8,91,2,horizontal,null,null,null,null,null,null,null,null,null,null,above,IBstimulus_absent,null,null,
8,91,3,horizontal,null,null,null,reportColor,null,null,null,null,null,null,above,IBstimulus_absent,null,null,
8,92,0,vertical,vertical,null,null,null,2857,null,null,null,null,null,above,IBstimulus_absent,null,null,12378
8,92,1,horizontal,horizontal,null,null,null,2264,null,null,null,null,null,above,IBstimulus_absent,null,null,9037
8,92,2,vertical,vertical,null,null,null,1716,null,null,null,null,null,above,IBstimulus_absent,null,null,5367
8,92,3,horizontal,horizontal,yes,blue,reportColor,4532,2943,3054,3926,3560,4767,above,IBstimulus_present,blue,left,29699
8,93,0,horizontal,horizontal,null,null,null,8016,null,null,null,null,null,above,IBstimulus_absent,null,null,19635
8,93,1,horizontal,horizontal,null,null,null,6182,null,null,null,null,null,below,IBstimulus_absent,null,null,11805
8,93,2,vertical,vertical,null,null,null,4818,null,null,null,null,null,above,IBstimulus_absent,null,null,10104
8,93,3,horizontal,horizontal,no,blue,reportColor,2954,8791,18800,5833,6647,6624,above,IBstimulus_absent,null,null,54661
8,94,0,horizontal,horizontal,null,null,null,8784,null,null,null,null,null,below,IBstimulus_absent,null,null,18145
8,94,1,horizontal,horizontal,null,null,null,3458,null,null,null,null,null,above,IBstimulus_absent,null,null,10036
8,94,2,horizontal,horizontal,null,null,null,3814,null,null,null,null,null,above,IBstimulus_absent,null,null,8732
8,94,3,vertical,vertical,no,blue,reportColor,3280,9209,12302,12451,5786,8054,below,IBstimulus_present,blue,left,55943
8,95,0,horizontal,null,null,null,null,null,null,null,null,null,null,above,IBstimulus_absent,null,null,
8,95,1,horizontal,null,null,null,null,null,null,null,null,null,null,below,IBstimulus_absent,null,null,
8,95,2,vertical,null,null,null,null,null,null,null,null,null,null,below,IBstimulus_absent,null,null,
8,95,3,horizontal,null,null,null,reportColor,null,null,null,null,null,null,below,IBstimulus_present,red,left,
8,96,0,vertical,vertical,null,null,null,2929.39,null,null,null,null,null,below,IBstimulus_absent,null,null,8803.695
8,96,1,horizontal,horizontal,null,null,null,2630.01,null,null,null,null,null,below,IBstimulus_absent,null,null,8321.2
8,96,2,horizontal,horizontal,null,null,null,2600.54,null,null,null,null,null,above,IBstimulus_absent,null,null,6581.645
8,96,3,horizontal,vertical,yes,blue,reportColor,4047.605,2865.19,4874.48,5087.28,3433.37,3878.165,below,IBstimulus_present,blue,left,27420.77
8,97,0,vertical,vertical,null,null,null,5526.2,null,null,null,null,null,below,IBstimulus_absent,null,null,14787.31
8,97,1,horizontal,horizontal,null,null,null,2723.545,null,null,null,null,null,below,IBstimulus_absent,null,null,8258.135
8,97,2,horizontal,horizontal,null,null,null,2660.8,null,null,null,null,null,above,IBstimulus_absent,null,null,7767.81
8,97,3,vertical,vertical,no,red,reportColor,2595.69,5296.31,9838.7,6713.22,5834.035,9972.62,below,IBstimulus_absent,null,null,44435.11
8,98,0,vertical,vertical,null,null,null,2639.815,null,null,null,null,null,below,IBstimulus_absent,null,null,10689.5
8,98,1,vertical,vertical,null,null,null,1357.985,null,null,null,null,null,below,IBstimulus_absent,null,null,13948.005
8,98,2,vertical,vertical,null,null,null,1528.455,null,null,null,null,null,below,IBstimulus_absent,null,null,5617.405
8,98,3,horizontal,horizontal,yes,blue,reportColor,1222.18,3546.195,4979.32,2793.185,2715.635,4923.77,above,IBstimulus_absent,null,null,29618.055
8,99,0,horizontal,horizontal,null,null,null,3050.41,null,null,null,null,null,above,IBstimulus_absent,null,null,11148.895
8,99,1,horizontal,horizontal,null,null,null,2760.39,null,null,null,null,null,above,IBstimulus_absent,null,null,6847.33
8,99,2,vertical,vertical,null,null,null,3373.83,null,null,null,null,null,above,IBstimulus_absent,null,null,7203.405
8,99,3,horizontal,horizontal,no,red,reportColor,2538.95,34976.53,9632.76,11199.215,3413.845,5115.995,below,IBstimulus_present,blue,left,70805.655
8,100,0,horizontal,horizontal,null,null,null,4569.655,null,null,null,null,null,below,IBstimulus_absent,null,null,12823.47
8,100,1,horizontal,horizontal,null,null,null,2255.21,null,null,null,null,null,above,IBstimulus_absent,null,null,6850.45
8,100,2,horizontal,horizontal,null,null,null,3361.03,null,null,null,null,null,below,IBstimulus_absent,null,null,6963.265
8,100,3,vertical,vertical,yes,blue,reportColor,2110.445,3517.95,6183.57,4176.375,4161.11,5317.7,below,IBstimulus_present,blue,left,28912.93
8,101,0,vertical,vertical,null,null,null,4412,null,null,null,null,null,above,IBstimulus_absent,null,null,12666
8,101,1,vertical,vertical,null,null,null,2195,null,null,null,null,null,below,IBstimulus_absent,null,null,6217
8,101,2,vertical,vertical,null,null,null,1974,null,null,null,null,null,above,IBstimulus_absent,null,null,6045
8,101,3,vertical,vertical,yes,red,reportColor,2889,11047,5424,5365,4157,10692,above,IBstimulus_present,red,left,43776
8,102,0,horizontal,horizontal,null,null,null,3455.985,null,null,null,null,null,below,IBstimulus_absent,null,null,8489.85
8,102,1,horizontal,horizontal,null,null,null,3449.925,null,null,null,null,null,above,IBstimulus_absent,null,null,7047.51
8,102,2,horizontal,horizontal,null,null,null,2420.115,null,null,null,null,null,above,IBstimulus_absent,null,null,5863.055
8,102,3,horizontal,horizontal,yes,blue,reportColor,2924.315,4214.195,2785.365,3306.76,3154.125,3723.725,below,IBstimulus_present,blue,right,23505.77
8,103,0,horizontal,horizontal,null,null,null,5591.025,null,null,null,null,null,above,IBstimulus_absent,null,null,12926.635
8,103,1,horizontal,horizontal,null,null,null,2807.425,null,null,null,null,null,above,IBstimulus_absent,null,null,8297.665
8,103,2,vertical,vertical,null,null,null,2890.34,null,null,null,null,null,below,IBstimulus_absent,null,null,12352.63
8,103,3,horizontal,horizontal,no,blue,reportColor,2512.71,6293.295,9859.63,9524.14,5677.12,5568.43,below,IBstimulus_present,red,left,43566.125
8,104,0,vertical,vertical,null,null,null,6317.86,null,null,null,null,null,above,IBstimulus_absent,null,null,18535.965
8,104,1,vertical,vertical,null,null,null,3779.46,null,null,null,null,null,below,IBstimulus_absent,null,null,16301.515
8,104,2,vertical,vertical,null,null,null,4227.99,null,null,null,null,null,above,IBstimulus_absent,null,null,9350.695
8,104,3,vertical,vertical,no,red,reportColor,5399.615,11702.88,14298.68,10198.325,5932.755,14242.185,above,IBstimulus_present,red,left,66250.265
8,105,0,horizontal,horizontal,null,null,null,2489.635,null,null,null,null,null,above,IBstimulus_absent,null,null,7662.445
8,105,1,vertical,vertical,null,null,null,1929.8,null,null,null,null,null,above,IBstimulus_absent,null,null,5694.715
8,105,2,vertical,vertical,null,null,null,2095.98,null,null,null,null,null,below,IBstimulus_absent,null,null,5105.005
8,105,3,vertical,vertical,yes,blue,reportColor,2092.04,3068.115,6383.11,5282.85,2790.995,2903.875,above,IBstimulus_present,blue,left,25862.525
8,106,0,vertical,horizontal,null,null,null,11735.725,null,null,null,null,null,below,IBstimulus_absent,null,null,18469.94
8,106,1,vertical,vertical,null,null,null,13898.35,null,null,null,null,null,above,IBstimulus_absent,null,null,18673.675
8,106,2,horizontal,vertical,null,null,null,2569.455,null,null,null,null,null,below,IBstimulus_absent,null,null,6136.22
8,106,3,horizontal,vertical,no,blue,reportColor,1853.19,4329.575,6856.41,15147.15,12679.785,8779.455,above,IBstimulus_present,blue,left,53475.835
8,107,0,horizontal,horizontal,null,null,null,2827,null,null,null,null,null,below,IBstimulus_absent,null,null,15005
8,107,1,vertical,vertical,null,null,null,2393,null,null,null,null,null,above,IBstimulus_absent,null,null,7396
8,107,2,horizontal,horizontal,null,null,null,2346,null,null,null,null,null,above,IBstimulus_absent,null,null,6698
8,107,3,vertical,vertical,no,red,reportColor,5187,5622,9040,10414,5857,7194,above,IBstimulus_absent,null,null,47198
8,108,0,horizontal,horizontal,null,null,null,2489.635,null,null,null,null,null,above,IBstimulus_absent,null,null,7662.445
8,108,1,vertical,vertical,null,null,null,1929.8,null,null,null,null,null,above,IBstimulus_absent,null,null,5694.715
8,108,2,vertical,vertical,null,null,null,2095.98,null,null,null,null,null,below,IBstimulus_absent,null,null,5105.005
8,108,3,vertical,vertical,yes,blue,reportColor,2092.04,3068.115,6383.11,5282.85,2790.995,2903.875,above,IBstimulus_present,blue,left,25862.525
8,109,0,vertical,vertical,null,null,null,3406.305,null,null,null,null,null,above,IBstimulus_absent,null,null,9216.48
8,109,1,horizontal,horizontal,null,null,null,1376.47,null,null,null,null,null,above,IBstimulus_absent,null,null,8300.1
8,109,2,vertical,vertical,null,null,null,1717.39,null,null,null,null,null,below,IBstimulus_absent,null,null,6992.695
8,109,3,horizontal,horizontal,no,blue,reportColor,1378.115,3486.89,5724.305,3371.455,2932.27,9322.615,below,IBstimulus_absent,null,null,30646.775
8,110,0,vertical,vertical,null,null,null,4852.685,null,null,null,null,null,above,IBstimulus_absent,null,null,16006.94
8,110,1,vertical,vertical,null,null,null,3034.67,null,null,null,null,null,below,IBstimulus_absent,null,null,9196.255
8,110,2,vertical,vertical,null,null,null,1957.26,null,null,null,null,null,above,IBstimulus_absent,null,null,6388.74
8,110,3,horizontal,horizontal,yes,blue,reportColor,3663.895,3279.66,8312.17,7411.845,2875.605,4693.715,above,IBstimulus_present,red,left,34391.16