batchNum,subjectID ,trialNum,longerArm,response_longerArm,response_yesNo,response_AFC,AFCquestion,RT_longerArm,RT_yesNo,RT_AFC,RT_IBfamiliarity,RT_age,RT_ishihara,aboveBelow,trialType,IBstimulus_color,IBstimulus_location,trialTime
5,0,0,vertical,vertical,null,null,null,5209.25,null,null,null,null,null,above,IBstimulus_absent,null,null,15379.48
5,0,1,vertical,vertical,null,null,null,3961.53,null,null,null,null,null,above,IBstimulus_absent,null,null,8230.63
5,0,2,vertical,vertical,null,null,null,2126.23,null,null,null,null,null,above,IBstimulus_absent,null,null,39397.675
5,0,3,vertical,vertical,yes,blue,reportColor,2013.61,5834.155,13773.715,6029.71,3654.53,5362.095,above,IBstimulus_present,red,right,40392.015
5,1,0,vertical,vertical,null,null,null,3330,null,null,null,null,null,below,IBstimulus_absent,null,null,11855
5,1,1,horizontal,horizontal,null,null,null,2801,null,null,null,null,null,above,IBstimulus_absent,null,null,7470
5,1,2,vertical,vertical,null,null,null,2703,null,null,null,null,null,above,IBstimulus_absent,null,null,6385
5,1,3,vertical,vertical,no,red,reportColor,3596,5804,9042,4119,3716,5869,above,IBstimulus_present,blue,right,35675
5,2,0,horizontal,horizontal,null,null,null,3385.715,null,null,null,null,null,below,IBstimulus_absent,null,null,12503.455
5,2,1,horizontal,horizontal,null,null,null,1815.36,null,null,null,null,null,below,IBstimulus_absent,null,null,17526.955
5,2,2,vertical,vertical,null,null,null,1475.42,null,null,null,null,null,below,IBstimulus_absent,null,null,5903.175
5,2,3,horizontal,horizontal,yes,red,reportColor,1389.585,5326.43,8103.795,7229.83,3552.39,7725.64,below,IBstimulus_present,red,left,37348.795
5,3,0,horizontal,horizontal,null,null,null,2454.72,null,null,null,null,null,below,IBstimulus_absent,null,null,13204.76
5,3,1,vertical,vertical,null,null,null,1699.365,null,null,null,null,null,below,IBstimulus_absent,null,null,6888.305
5,3,2,vertical,vertical,null,null,null,1550.56,null,null,null,null,null,below,IBstimulus_absent,null,null,5316.47
5,3,3,vertical,vertical,yes,red,reportColor,1523.58,4821.495,2099.67,5887.37,3556.115,3598.74,above,IBstimulus_present,red,right,25077.94
5,4,0,vertical,vertical,null,null,null,5002.715,null,null,null,null,null,above,IBstimulus_absent,null,null,10864.225
5,4,1,horizontal,horizontal,null,null,null,3075.91,null,null,null,null,null,below,IBstimulus_absent,null,null,11354.78
5,4,2,vertical,vertical,null,null,null,2776.325,null,null,null,null,null,below,IBstimulus_absent,null,null,6058.89
5,4,3,vertical,vertical,no,blue,reportColor,2593.895,6934.585,10798.045,8631.575,3735.2,7206.275,above,IBstimulus_present,red,right,46980.33
5,5,0,horizontal,horizontal,null,null,null,2386,null,null,null,null,null,below,IBstimulus_absent,null,null,12640
5,5,1,vertical,vertical,null,null,null,3706,null,null,null,null,null,above,IBstimulus_absent,null,null,8749
5,5,2,horizontal,vertical,null,null,null,3146,null,null,null,null,null,below,IBstimulus_absent,null,null,6112
5,5,3,horizontal,horizontal,no,blue,reportColor,2014,7136,7167,8215,4639,7399,below,IBstimulus_absent,null,null,39644
5,6,0,horizontal,horizontal,null,null,null,6400.755,null,null,null,null,null,below,IBstimulus_absent,null,null,12038.315
5,6,1,vertical,vertical,null,null,null,3261.825,null,null,null,null,null,above,IBstimulus_absent,null,null,7625.75
5,6,2,horizontal,horizontal,null,null,null,2246.25,null,null,null,null,null,above,IBstimulus_absent,null,null,5616.91
5,6,3,vertical,vertical,yes,red,reportColor,3302.7,4215.88,7246.91,4845.67,4684.86,5122.75,above,IBstimulus_present,red,right,32651.61
5,7,0,vertical,vertical,null,null,null,2414.685,null,null,null,null,null,above,IBstimulus_absent,null,null,8039.34
5,7,1,vertical,vertical,null,null,null,2682.115,null,null,null,null,null,above,IBstimulus_absent,null,null,6847.245
5,7,2,horizontal,horizontal,null,null,null,2097.95,null,null,null,null,null,below,IBstimulus_absent,null,null,6416.9
5,7,3,horizontal,horizontal,no,red,reportColor,3474.335,4175.315,4366.35,3874.315,2861.955,4023.74,above,IBstimulus_absent,null,null,26048.03
5,8,0,horizontal,horizontal,null,null,null,3770.885,null,null,null,null,null,above,IBstimulus_absent,null,null,9254.06
5,8,1,horizontal,horizontal,null,null,null,2379.235,null,null,null,null,null,above,IBstimulus_absent,null,null,11307.265
5,8,2,horizontal,horizontal,null,null,null,2972.555,null,null,null,null,null,above,IBstimulus_absent,null,null,6322.915
5,8,3,vertical,vertical,no,red,reportColor,3109.375,6679.09,7354.285,5195.88,5851.645,5438.11,below,IBstimulus_present,blue,right,36449.095
5,9,0,vertical,vertical,null,null,null,3506.15,null,null,null,null,null,below,IBstimulus_absent,null,null,9108.975
5,9,1,horizontal,horizontal,null,null,null,2207.225,null,null,null,null,null,below,IBstimulus_absent,null,null,5936.465
5,9,2,vertical,vertical,null,null,null,1853.225,null,null,null,null,null,above,IBstimulus_absent,null,null,5232.325
5,9,3,horizontal,horizontal,no,blue,reportColor,1774.43,4463.17,5333.67,4165.885,4557.54,12012.925,below,IBstimulus_present,blue,left,35836.405
5,10,0,horizontal,horizontal,null,null,null,4876.125,null,null,null,null,null,below,IBstimulus_absent,null,null,13031.38
5,10,1,vertical,vertical,null,null,null,2728.635,null,null,null,null,null,above,IBstimulus_absent,null,null,7449.85
5,10,2,vertical,vertical,null,null,null,2046.185,null,null,null,null,null,below,IBstimulus_absent,null,null,6165.23
5,10,3,vertical,vertical,no,blue,reportColor,1808.36,5228.6,8845.58,6437.795,3612.97,4722.415,below,IBstimulus_absent,null,null,34632.89
5,11,0,vertical,vertical,null,null,null,1877,null,null,null,null,null,above,IBstimulus_absent,null,null,10290
5,11,1,vertical,vertical,null,null,null,1562,null,null,null,null,null,below,IBstimulus_absent,null,null,5500
5,11,2,horizontal,horizontal,null,null,null,1530,null,null,null,null,null,above,IBstimulus_absent,null,null,5435
5,11,3,vertical,vertical,yes,red,reportColor,3693,2659,2473,7905,3419,4581,above,IBstimulus_present,red,left,27737
5,12,0,horizontal,horizontal,null,null,null,3090.095,null,null,null,null,null,below,IBstimulus_absent,null,null,10749.37
5,12,1,vertical,vertical,null,null,null,2639.625,null,null,null,null,null,below,IBstimulus_absent,null,null,7835.88
5,12,2,vertical,vertical,null,null,null,2812.03,null,null,null,null,null,above,IBstimulus_absent,null,null,7694.405
5,12,3,horizontal,horizontal,yes,blue,reportColor,2682.73,4606.985,7599.865,3550.42,4108.525,5395.74,below,IBstimulus_present,blue,left,33415.955
5,13,0,horizontal,horizontal,null,null,null,3917.12,null,null,null,null,null,below,IBstimulus_absent,null,null,10830.85
5,13,1,horizontal,horizontal,null,null,null,2205.99,null,null,null,null,null,above,IBstimulus_absent,null,null,6222.76
5,13,2,horizontal,horizontal,null,null,null,1832.57,null,null,null,null,null,below,IBstimulus_absent,null,null,9681.58
5,13,3,vertical,vertical,no,red,reportColor,2391.67,7045.985,11339.49,8823.145,3828.35,5159.62,below,IBstimulus_absent,null,null,43930.805
5,14,0,horizontal,horizontal,null,null,null,5247.975,null,null,null,null,null,below,IBstimulus_absent,null,null,13576.33
5,14,1,vertical,vertical,null,null,null,2589.485,null,null,null,null,null,below,IBstimulus_absent,null,null,6588.125
5,14,2,horizontal,horizontal,null,null,null,2421.34,null,null,null,null,null,below,IBstimulus_absent,null,null,6197.435
5,14,3,vertical,vertical,no,blue,reportColor,1878.93,6043.875,7125.985,6328.845,3968.245,4232.12,below,IBstimulus_absent,null,null,32928.385
5,15,0,horizontal,horizontal,null,null,null,4568.9,null,null,null,null,null,above,IBstimulus_absent,null,null,14597.26
5,15,1,horizontal,horizontal,null,null,null,4646.115,null,null,null,null,null,above,IBstimulus_absent,null,null,10091.33
5,15,2,vertical,vertical,null,null,null,3071.42,null,null,null,null,null,above,IBstimulus_absent,null,null,7191.23
5,15,3,vertical,vertical,yes,blue,reportColor,3227.24,9279.885,12239.71,6567.94,4951.44,7311.375,below,IBstimulus_absent,null,null,46746.88
5,16,0,horizontal,horizontal,null,null,null,8605.88,null,null,null,null,null,above,IBstimulus_absent,null,null,21763.295
5,16,1,vertical,vertical,null,null,null,2246.06,null,null,null,null,null,below,IBstimulus_absent,null,null,6597.18
5,16,2,horizontal,horizontal,null,null,null,2767.755,null,null,null,null,null,below,IBstimulus_absent,null,null,6615.835
5,16,3,horizontal,horizontal,yes,red,reportColor,2337.87,2994.805,1318.04,3847.275,2691.495,4366.67,above,IBstimulus_present,red,left,21312.685
5,17,0,vertical,vertical,null,null,null,3177.25,null,null,null,null,null,above,IBstimulus_absent,null,null,20109.015
5,17,1,vertical,vertical,null,null,null,3648.12,null,null,null,null,null,below,IBstimulus_absent,null,null,6967.21
5,17,2,horizontal,horizontal,null,null,null,2222.815,null,null,null,null,null,below,IBstimulus_absent,null,null,5372.41
5,17,3,vertical,vertical,yes,red,reportColor,2506.275,9661.545,7170.585,5239.065,4320.195,5892.965,below,IBstimulus_present,red,right,38372.06
5,18,0,horizontal,horizontal,null,null,null,3033.79,null,null,null,null,null,above,IBstimulus_absent,null,null,7599.755
5,18,1,vertical,vertical,null,null,null,10888.71,null,null,null,null,null,above,IBstimulus_absent,null,null,15343.715
5,18,2,horizontal,horizontal,null,null,null,2277.915,null,null,null,null,null,below,IBstimulus_absent,null,null,5604.29
5,18,3,horizontal,horizontal,no,blue,reportColor,2324.31,5494.24,31328.685,5757.305,2979.635,3483.835,below,IBstimulus_absent,null,null,54783.03
5,19,0,vertical,vertical,null,null,null,5171.43,null,null,null,null,null,above,IBstimulus_absent,null,null,12845
5,19,1,horizontal,horizontal,null,null,null,1590.365,null,null,null,null,null,below,IBstimulus_absent,null,null,5467.015
5,19,2,vertical,vertical,null,null,null,1558.68,null,null,null,null,null,below,IBstimulus_absent,null,null,4376.35
5,19,3,vertical,vertical,no,blue,reportColor,2905.51,5756.12,6806.17,4716.065,5733.655,6006.425,above,IBstimulus_present,blue,right,35099.63
5,20,0,vertical,vertical,null,null,null,8402.075,null,null,null,null,null,below,IBstimulus_absent,null,null,19549.37
5,20,1,vertical,vertical,null,null,null,5838.205,null,null,null,null,null,below,IBstimulus_absent,null,null,12073.475
5,20,2,horizontal,horizontal,null,null,null,3674.55,null,null,null,null,null,above,IBstimulus_absent,null,null,7505.53
5,20,3,vertical,vertical,no,red,reportColor,5218.105,9572.625,15571.41,16489.735,6824.39,14177.22,below,IBstimulus_absent,null,null,71881.89
5,21,0,horizontal,horizontal,null,null,null,2416,null,null,null,null,null,above,IBstimulus_absent,null,null,8463
5,21,1,vertical,vertical,null,null,null,1828,null,null,null,null,null,below,IBstimulus_absent,null,null,5792
5,21,2,vertical,vertical,null,null,null,1855,null,null,null,null,null,below,IBstimulus_absent,null,null,5427
5,21,3,vertical,vertical,yes,red,reportColor,1860,3464,6520,4917,3322,3719,below,IBstimulus_present,red,right,27461
5,22,0,horizontal,horizontal,null,null,null,1552.48,null,null,null,null,null,below,IBstimulus_absent,null,null,6446.915
5,22,1,vertical,vertical,null,null,null,962.0950001,null,null,null,null,null,below,IBstimulus_absent,null,null,3730.585
5,22,2,vertical,vertical,null,null,null,1199.645,null,null,null,null,null,below,IBstimulus_absent,null,null,3908.2
5,22,3,vertical,vertical,yes,red,reportColor,1183.645,2015.915,1159.415,2846.885,2239.77,2942.91,below,IBstimulus_present,red,left,15010.795
5,23,0,horizontal,vertical,null,null,null,5003.435,null,null,null,null,null,above,IBstimulus_absent,null,null,14625.49
5,23,1,vertical,vertical,null,null,null,5521.205,null,null,null,null,null,below,IBstimulus_absent,null,null,11414.76
5,23,2,vertical,vertical,null,null,null,4917.345,null,null,null,null,null,below,IBstimulus_absent,null,null,8563.795
5,23,3,vertical,horizontal,yes,red,reportColor,2687.97,3468.075,2143.16,6854.565,4596.155,4781.05,above,IBstimulus_present,red,left,28981.57
5,24,0,horizontal,horizontal,null,null,null,3770.885,null,null,null,null,null,above,IBstimulus_absent,null,null,9254.06
5,24,1,horizontal,horizontal,null,null,null,2379.235,null,null,null,null,null,above,IBstimulus_absent,null,null,11307.265
5,24,2,horizontal,horizontal,null,null,null,2972.555,null,null,null,null,null,above,IBstimulus_absent,null,null,6322.915
5,24,3,vertical,vertical,no,red,reportColor,3109.375,6679.09,7354.285,5195.88,5851.645,5438.11,below,IBstimulus_present,blue,right,36449.095
5,25,0,vertical,vertical,null,null,null,1765.015,null,null,null,null,null,above,IBstimulus_absent,null,null,7311.785
5,25,1,horizontal,horizontal,null,null,null,1970.87,null,null,null,null,null,below,IBstimulus_absent,null,null,10832.175
5,25,2,vertical,vertical,null,null,null,2069.55,null,null,null,null,null,above,IBstimulus_absent,null,null,5212.7
5,25,3,vertical,vertical,no,blue,reportColor,1723.885,3695.32,7854.475,2806.72,2862.155,4391.19,below,IBstimulus_present,red,right,29844.03
5,26,0,horizontal,vertical,null,null,null,6151.75,null,null,null,null,null,below,IBstimulus_absent,null,null,14988.36
5,26,1,vertical,vertical,null,null,null,3922.425,null,null,null,null,null,below,IBstimulus_absent,null,null,10106.5
5,26,2,horizontal,horizontal,null,null,null,8704.46,null,null,null,null,null,below,IBstimulus_absent,null,null,12134.855
5,26,3,vertical,horizontal,yes,red,reportColor,4957.73,4069.695,6323.885,15756.4,12875.595,28227.18,above,IBstimulus_absent,null,null,81673.005
5,27,0,horizontal,horizontal,null,null,null,3172.46,null,null,null,null,null,below,IBstimulus_absent,null,null,8398.39
5,27,1,vertical,vertical,null,null,null,1450.16,null,null,null,null,null,below,IBstimulus_absent,null,null,5307.16
5,27,2,horizontal,horizontal,null,null,null,2483.87,null,null,null,null,null,above,IBstimulus_absent,null,null,8613.105
5,27,3,horizontal,horizontal,yes,blue,reportColor,4116.36,3118.1,5442.855,6772.915,3254.2,5084.015,below,IBstimulus_present,blue,left,31385.575
5,28,0,horizontal,horizontal,null,null,null,2293.915,null,null,null,null,null,above,IBstimulus_absent,null,null,8213.44
5,28,1,horizontal,horizontal,null,null,null,2465.73,null,null,null,null,null,below,IBstimulus_absent,null,null,5719.355
5,28,2,horizontal,horizontal,null,null,null,1680.53,null,null,null,null,null,below,IBstimulus_absent,null,null,5946.365
5,28,3,horizontal,horizontal,no,blue,reportColor,2125.18,3425.54,4938.195,3510.08,5290.565,5058.02,below,IBstimulus_absent,null,null,28214.9
5,29,0,vertical,vertical,null,null,null,7875,null,null,null,null,null,above,IBstimulus_absent,null,null,23823
5,29,1,horizontal,horizontal,null,null,null,3346,null,null,null,null,null,below,IBstimulus_absent,null,null,10263
5,29,2,horizontal,vertical,null,null,null,2467,null,null,null,null,null,below,IBstimulus_absent,null,null,6977
5,29,3,horizontal,vertical,no,blue,reportColor,3956,4608,7818,6442,6638,8032,above,IBstimulus_present,red,right,41948
5,30,0,vertical,vertical,null,null,null,4467.09,null,null,null,null,null,above,IBstimulus_absent,null,null,10034.345
5,30,1,horizontal,horizontal,null,null,null,3414.47,null,null,null,null,null,below,IBstimulus_absent,null,null,8912.36
5,30,2,vertical,vertical,null,null,null,4657.36,null,null,null,null,null,below,IBstimulus_absent,null,null,9216.72
5,30,3,vertical,vertical,no,red,reportColor,3065.74,7149.92,9688.535,7253.455,4371.145,6805.885,above,IBstimulus_absent,null,null,41888.65
5,31,0,horizontal,null,null,null,null,null,null,null,null,null,null,below,IBstimulus_absent,null,null,
5,31,1,vertical,null,null,null,null,null,null,null,null,null,null,above,IBstimulus_absent,null,null,
5,31,2,horizontal,null,null,null,null,null,null,null,null,null,null,above,IBstimulus_absent,null,null,
5,31,3,horizontal,null,null,null,reportColor,null,null,null,null,null,null,above,IBstimulus_present,blue,left,
5,32,0,horizontal,horizontal,null,null,null,6157.6,null,null,null,null,null,above,IBstimulus_absent,null,null,15371.66
5,32,1,horizontal,horizontal,null,null,null,6951.495,null,null,null,null,null,below,IBstimulus_absent,null,null,11943.105
5,32,2,vertical,vertical,null,null,null,6249.8,null,null,null,null,null,below,IBstimulus_absent,null,null,11267.175
5,32,3,vertical,vertical,yes,red,reportColor,7884.925,5519.78,10479.46,11328.005,3483.4,4323.32,below,IBstimulus_present,red,left,48318.695
5,33,0,horizontal,horizontal,null,null,null,2077.74,null,null,null,null,null,below,IBstimulus_absent,null,null,6429.78
5,33,1,horizontal,horizontal,null,null,null,1208.48,null,null,null,null,null,above,IBstimulus_absent,null,null,4997.82
5,33,2,horizontal,horizontal,null,null,null,1184.72,null,null,null,null,null,below,IBstimulus_absent,null,null,4681.5
5,33,3,vertical,vertical,yes,red,reportColor,2392.3,2031.6,2688.98,2419.26,2793.58,2928.5,above,IBstimulus_present,red,right,18497.18
5,34,0,horizontal,horizontal,null,null,null,4106.505,null,null,null,null,null,above,IBstimulus_absent,null,null,17829.735
5,34,1,horizontal,horizontal,null,null,null,3040.77,null,null,null,null,null,above,IBstimulus_absent,null,null,9850.295
5,34,2,horizontal,vertical,null,null,null,2965.175,null,null,null,null,null,above,IBstimulus_absent,null,null,12019.94
5,34,3,vertical,vertical,no,blue,reportColor,2236.15,20275.035,13084.605,9751.36,4707.05,13647.45,above,IBstimulus_present,blue,left,69830.345
5,35,0,vertical,vertical,null,null,null,2634.635,null,null,null,null,null,below,IBstimulus_absent,null,null,10235.155
5,35,1,horizontal,horizontal,null,null,null,2520.655,null,null,null,null,null,below,IBstimulus_absent,null,null,7666.735
5,35,2,horizontal,horizontal,null,null,null,1785.1,null,null,null,null,null,below,IBstimulus_absent,null,null,9266.275
5,35,3,horizontal,horizontal,yes,red,reportColor,2244.26,4173.42,4500.335,8748.28,4748.805,5757.79,above,IBstimulus_present,red,left,35648.105
5,36,0,vertical,vertical,null,null,null,3131.98,null,null,null,null,null,below,IBstimulus_absent,null,null,13170.035
5,36,1,horizontal,horizontal,null,null,null,3210.785,null,null,null,null,null,above,IBstimulus_absent,null,null,12016.025
5,36,2,horizontal,horizontal,null,null,null,2056.145,null,null,null,null,null,below,IBstimulus_absent,null,null,5456.25
5,36,3,vertical,vertical,no,blue,reportColor,2554.71,5746.405,14629.78,6043.2,6547.18,8311.145,above,IBstimulus_present,red,right,46871.985
5,37,0,vertical,horizontal,null,null,null,9681.605,null,null,null,null,null,above,IBstimulus_absent,null,null,18022.655
5,37,1,vertical,horizontal,null,null,null,9267.44,null,null,null,null,null,above,IBstimulus_absent,null,null,29012.855
5,37,2,horizontal,vertical,null,null,null,3619.13,null,null,null,null,null,above,IBstimulus_absent,null,null,8615.035
5,37,3,horizontal,vertical,no,blue,reportColor,1928.48,4575.6,18887.57,6647.58,3471.85,9591.295,below,IBstimulus_present,blue,right,48947.255
5,38,0,horizontal,horizontal,null,null,null,3009.04,null,null,null,null,null,below,IBstimulus_absent,null,null,11684.92
5,38,1,vertical,vertical,null,null,null,1798.495,null,null,null,null,null,below,IBstimulus_absent,null,null,7818.855
5,38,2,vertical,vertical,null,null,null,2693.68,null,null,null,null,null,below,IBstimulus_absent,null,null,6190.025
5,38,3,vertical,horizontal,yes,red,reportColor,2011.95,4252.52,1426.34,5996.58,3114.515,5750.38,above,IBstimulus_present,red,left,26010.695
5,39,0,vertical,vertical,null,null,null,3477,null,null,null,null,null,above,IBstimulus_absent,null,null,15085
5,39,1,vertical,vertical,null,null,null,21788,null,null,null,null,null,above,IBstimulus_absent,null,null,28676
5,39,2,horizontal,horizontal,null,null,null,4219,null,null,null,null,null,below,IBstimulus_absent,null,null,8880
5,39,3,vertical,vertical,yes,blue,reportColor,2555,4280,2127,6904,3632,4941,below,IBstimulus_present,blue,right,27980
5,40,0,vertical,vertical,null,null,null,1900.85,null,null,null,null,null,below,IBstimulus_absent,null,null,7017.575
5,40,1,vertical,vertical,null,null,null,1222.095,null,null,null,null,null,below,IBstimulus_absent,null,null,7825.815
5,40,2,horizontal,horizontal,null,null,null,1724.385,null,null,null,null,null,above,IBstimulus_absent,null,null,5405.945
5,40,3,vertical,vertical,yes,red,reportColor,3795.095,4121.875,3176.87,3189.295,2878.77,4306.235,above,IBstimulus_present,red,left,24415.66
5,41,0,vertical,horizontal,null,null,null,6928.165,null,null,null,null,null,below,IBstimulus_absent,null,null,16265.825
5,41,1,horizontal,vertical,null,null,null,3075.275,null,null,null,null,null,below,IBstimulus_absent,null,null,9845.275
5,41,2,horizontal,vertical,null,null,null,3321.64,null,null,null,null,null,below,IBstimulus_absent,null,null,9011.875
5,41,3,horizontal,vertical,no,blue,reportColor,4522.125,7343.17,9531.885,7076.095,5137.47,5320.75,below,IBstimulus_absent,null,null,42716.175
5,42,0,vertical,vertical,null,null,null,2459.76,null,null,null,null,null,below,IBstimulus_absent,null,null,9508.31
5,42,1,horizontal,horizontal,null,null,null,1826.285,null,null,null,null,null,above,IBstimulus_absent,null,null,5499.575
5,42,2,horizontal,horizontal,null,null,null,1823.25,null,null,null,null,null,below,IBstimulus_absent,null,null,4801.94
5,42,3,horizontal,horizontal,no,blue,reportColor,2266.4,7622.125,9101.715,5148.37,3655.245,4359.12,above,IBstimulus_absent,null,null,35282.46
5,43,0,horizontal,vertical,null,null,null,7850.925,null,null,null,null,null,below,IBstimulus_absent,null,null,13974.42
5,43,1,vertical,horizontal,null,null,null,2233.905,null,null,null,null,null,above,IBstimulus_absent,null,null,7357.15
5,43,2,vertical,vertical,null,null,null,1887.785,null,null,null,null,null,below,IBstimulus_absent,null,null,5381.33
5,43,3,vertical,vertical,no,red,reportColor,2208.02,5447.005,6342.99,5176.435,3941.71,4480.66,below,IBstimulus_present,red,right,30795.41
5,44,0,vertical,vertical,null,null,null,1488.355,null,null,null,null,null,above,IBstimulus_absent,null,null,6495.87
5,44,1,horizontal,horizontal,null,null,null,1464.61,null,null,null,null,null,below,IBstimulus_absent,null,null,5073.78
5,44,2,horizontal,horizontal,null,null,null,1580.605,null,null,null,null,null,above,IBstimulus_absent,null,null,4814.93
5,44,3,vertical,vertical,no,red,reportColor,1219.94,4268.185,3399.175,5296.955,3176.39,4583.7,above,IBstimulus_present,blue,right,25236.105
5,45,0,horizontal,horizontal,null,null,null,5337.555,null,null,null,null,null,below,IBstimulus_absent,null,null,11759.315
5,45,1,vertical,vertical,null,null,null,2028.075,null,null,null,null,null,above,IBstimulus_absent,null,null,9502.1
5,45,2,vertical,vertical,null,null,null,1766.18,null,null,null,null,null,below,IBstimulus_absent,null,null,5919.86
5,45,3,vertical,vertical,no,blue,reportColor,2141.81,4442.675,7808.855,9309.02,3039.43,21732.135,above,IBstimulus_absent,null,null,51900.36
5,46,0,vertical,vertical,null,null,null,7868.485,null,null,null,null,null,above,IBstimulus_absent,null,null,13174.02
5,46,1,vertical,vertical,null,null,null,3762.885,null,null,null,null,null,below,IBstimulus_absent,null,null,7626.935
5,46,2,vertical,vertical,null,null,null,3781.345,null,null,null,null,null,above,IBstimulus_absent,null,null,7171.205
5,46,3,vertical,vertical,yes,red,reportColor,6372.945,4063.935,5626.875,8256.67,5136.295,12318.525,above,IBstimulus_present,red,left,45163.545
5,47,0,vertical,vertical,null,null,null,4889.83,null,null,null,null,null,above,IBstimulus_absent,null,null,15704.665
5,47,1,vertical,vertical,null,null,null,2137.465,null,null,null,null,null,below,IBstimulus_absent,null,null,13417.885
5,47,2,horizontal,horizontal,null,null,null,2734.31,null,null,null,null,null,below,IBstimulus_absent,null,null,9009.995
5,47,3,vertical,vertical,no,red,reportColor,2426.24,5747.35,9438.76,8429.315,5294.1,5259.105,below,IBstimulus_absent,null,null,41110.195
5,48,0,vertical,vertical,null,null,null,3539.735,null,null,null,null,null,below,IBstimulus_absent,null,null,9196.835
5,48,1,vertical,vertical,null,null,null,2150.315,null,null,null,null,null,below,IBstimulus_absent,null,null,6211.305
5,48,2,vertical,vertical,null,null,null,2716.425,null,null,null,null,null,below,IBstimulus_absent,null,null,6117.26
5,48,3,vertical,vertical,no,blue,reportColor,1963.57,4054.835,7325.74,7539.69,2987.87,7603.66,below,IBstimulus_absent,null,null,34759.17
5,49,0,horizontal,horizontal,null,null,null,2367.25,null,null,null,null,null,above,IBstimulus_absent,null,null,11459.88
5,49,1,horizontal,horizontal,null,null,null,1741.56,null,null,null,null,null,above,IBstimulus_absent,null,null,6913.055
5,49,2,vertical,vertical,null,null,null,1340.76,null,null,null,null,null,below,IBstimulus_absent,null,null,5785.33
5,49,3,vertical,vertical,yes,blue,reportColor,3394.495,3844.255,6936.71,3524.805,2840.6,4630.875,above,IBstimulus_present,blue,left,29492.615
5,50,0,vertical,vertical,null,null,null,3178.03,null,null,null,null,null,below,IBstimulus_absent,null,null,10284.97
5,50,1,horizontal,horizontal,null,null,null,2651.81,null,null,null,null,null,below,IBstimulus_absent,null,null,7394.64
5,50,2,vertical,vertical,null,null,null,2084.63,null,null,null,null,null,below,IBstimulus_absent,null,null,6563.79
5,50,3,horizontal,horizontal,no,blue,reportColor,1886.175,4573.21,8661.88,5358.575,3367,5044.82,below,IBstimulus_present,blue,right,33107.15
5,51,0,vertical,vertical,null,null,null,4821.515,null,null,null,null,null,below,IBstimulus_absent,null,null,11175.125
5,51,1,vertical,vertical,null,null,null,2111.145,null,null,null,null,null,below,IBstimulus_absent,null,null,12762.605
5,51,2,horizontal,horizontal,null,null,null,3473.395,null,null,null,null,null,above,IBstimulus_absent,null,null,6790.765
5,51,3,vertical,vertical,no,blue,reportColor,1740.82,5958.73,6550.27,5709.85,3663.235,8559.76,below,IBstimulus_absent,null,null,35387.3
5,52,0,horizontal,horizontal,null,null,null,2290.305,null,null,null,null,null,below,IBstimulus_absent,null,null,7572.07
5,52,1,vertical,vertical,null,null,null,1635.505,null,null,null,null,null,below,IBstimulus_absent,null,null,5076.135
5,52,2,horizontal,horizontal,null,null,null,1511.985,null,null,null,null,null,below,IBstimulus_absent,null,null,4382.495
5,52,3,vertical,vertical,no,blue,reportColor,1104.84,3311.29,6239.49,3119.35,4001.25,6292.85,above,IBstimulus_absent,null,null,27176.915
5,53,0,horizontal,horizontal,null,null,null,3168.945,null,null,null,null,null,below,IBstimulus_absent,null,null,10833.14
5,53,1,vertical,vertical,null,null,null,2125.375,null,null,null,null,null,above,IBstimulus_absent,null,null,7335.64
5,53,2,vertical,vertical,null,null,null,2633.305,null,null,null,null,null,above,IBstimulus_absent,null,null,6488.885
5,53,3,vertical,vertical,no,blue,reportColor,2707.465,5824.235,10780.12,8643.51,4346.42,9253.23,below,IBstimulus_present,red,right,45263.13
5,54,0,horizontal,horizontal,null,null,null,3166.79,null,null,null,null,null,above,IBstimulus_absent,null,null,7465.085
5,54,1,vertical,vertical,null,null,null,2210.08,null,null,null,null,null,below,IBstimulus_absent,null,null,16422.575
5,54,2,horizontal,horizontal,null,null,null,1214.545,null,null,null,null,null,above,IBstimulus_absent,null,null,5052.815
5,54,3,vertical,vertical,no,blue,reportColor,1522.56,2547.025,5864.515,8907.57,2734.02,3084.55,above,IBstimulus_absent,null,null,47202.145
5,55,0,horizontal,horizontal,null,null,null,2207.57,null,null,null,null,null,above,IBstimulus_absent,null,null,8837.715
5,55,1,horizontal,horizontal,null,null,null,1527.045,null,null,null,null,null,above,IBstimulus_absent,null,null,4982.84
5,55,2,horizontal,horizontal,null,null,null,1370.865,null,null,null,null,null,above,IBstimulus_absent,null,null,4311.7
5,55,3,horizontal,vertical,yes,red,reportColor,3884.23,2761.225,4396.295,5673.705,3449.905,37709.245,above,IBstimulus_present,red,left,60889.035
5,56,0,horizontal,horizontal,null,null,null,2373,null,null,null,null,null,above,IBstimulus_absent,null,null,11307
5,56,1,vertical,vertical,null,null,null,2614,null,null,null,null,null,above,IBstimulus_absent,null,null,7462
5,56,2,horizontal,horizontal,null,null,null,2587,null,null,null,null,null,above,IBstimulus_absent,null,null,7178
5,56,3,vertical,vertical,yes,red,reportColor,4474,4360,5764,6119,4076,4246,above,IBstimulus_present,red,left,32924
5,57,0,horizontal,horizontal,null,null,null,2498.95,null,null,null,null,null,below,IBstimulus_absent,null,null,8081.64
5,57,1,vertical,vertical,null,null,null,2435.13,null,null,null,null,null,above,IBstimulus_absent,null,null,7435.865
5,57,2,horizontal,horizontal,null,null,null,1904.53,null,null,null,null,null,above,IBstimulus_absent,null,null,5741.45
5,57,3,vertical,vertical,no,blue,reportColor,2515.845,16287.89,6300.205,3558.465,3206.88,3486.63,above,IBstimulus_absent,null,null,38416.34
5,58,0,vertical,vertical,null,null,null,5337.475,null,null,null,null,null,below,IBstimulus_absent,null,null,10207.63
5,58,1,vertical,vertical,null,null,null,2055.825,null,null,null,null,null,above,IBstimulus_absent,null,null,5607.48
5,58,2,horizontal,horizontal,null,null,null,1572.305,null,null,null,null,null,below,IBstimulus_absent,null,null,4533.325
5,58,3,horizontal,horizontal,no,red,reportColor,2224.1,5786.615,11174.075,15240.785,4201.365,5482.225,above,IBstimulus_absent,null,null,46837.195
5,59,0,horizontal,horizontal,null,null,null,3823,null,null,null,null,null,above,IBstimulus_absent,null,null,15713
5,59,1,horizontal,horizontal,null,null,null,2769,null,null,null,null,null,above,IBstimulus_absent,null,null,21852
5,59,2,horizontal,horizontal,null,null,null,3565,null,null,null,null,null,below,IBstimulus_absent,null,null,6931
5,59,3,vertical,vertical,no,blue,reportColor,3386,4721,8595,4684,4330,4548,above,IBstimulus_present,red,right,34430
5,60,0,vertical,vertical,null,null,null,2239.125,null,null,null,null,null,below,IBstimulus_absent,null,null,6836.01
5,60,1,horizontal,horizontal,null,null,null,1894.845,null,null,null,null,null,below,IBstimulus_absent,null,null,6336.535
5,60,2,horizontal,horizontal,null,null,null,1469.34,null,null,null,null,null,below,IBstimulus_absent,null,null,4339.275
5,60,3,vertical,vertical,yes,blue,reportColor,2196.84,3564.94,4309.765,3211.25,3298.955,4045.785,below,IBstimulus_present,blue,right,27032.71
5,61,0,horizontal,horizontal,null,null,null,5337.555,null,null,null,null,null,below,IBstimulus_absent,null,null,11759.315
5,61,1,vertical,vertical,null,null,null,2028.075,null,null,null,null,null,above,IBstimulus_absent,null,null,9502.1
5,61,2,vertical,vertical,null,null,null,1766.18,null,null,null,null,null,below,IBstimulus_absent,null,null,5919.86
5,61,3,vertical,vertical,no,blue,reportColor,2141.81,4442.675,7808.855,9309.02,3039.43,21732.135,above,IBstimulus_absent,null,null,51900.36
5,62,0,vertical,vertical,null,null,null,4839.175,null,null,null,null,null,below,IBstimulus_absent,null,null,12356.415
5,62,1,vertical,vertical,null,null,null,4610.35,null,null,null,null,null,above,IBstimulus_absent,null,null,13356.685
5,62,2,horizontal,horizontal,null,null,null,3746.275,null,null,null,null,null,below,IBstimulus_absent,null,null,7381.395
5,62,3,vertical,vertical,no,blue,reportColor,3406.23,6326.865,17576.06,19607.08,5515.965,6191.865,below,IBstimulus_absent,null,null,61976.39
5,63,0,vertical,vertical,null,null,null,2989.525,null,null,null,null,null,below,IBstimulus_absent,null,null,13132.305
5,63,1,horizontal,horizontal,null,null,null,2157.845,null,null,null,null,null,below,IBstimulus_absent,null,null,11348.005
5,63,2,horizontal,horizontal,null,null,null,2833.135,null,null,null,null,null,below,IBstimulus_absent,null,null,6623.045
5,63,3,vertical,vertical,no,blue,reportColor,2908.815,7223.125,12742.98,10943.27,5175.275,7703.065,above,IBstimulus_present,blue,right,50501.055
5,64,0,horizontal,horizontal,null,null,null,6742.745,null,null,null,null,null,above,IBstimulus_absent,null,null,14195.82
5,64,1,vertical,vertical,null,null,null,2541.395,null,null,null,null,null,below,IBstimulus_absent,null,null,10688.03
5,64,2,vertical,vertical,null,null,null,2316.545,null,null,null,null,null,above,IBstimulus_absent,null,null,124294.695
5,64,3,vertical,vertical,no,red,reportColor,1816.255,4849.79,13067.575,8135.905,4006.345,4958.7,above,IBstimulus_present,red,left,40159.63
5,65,0,horizontal,horizontal,null,null,null,2223.985,null,null,null,null,null,above,IBstimulus_absent,null,null,8271.58
5,65,1,vertical,vertical,null,null,null,1087.61,null,null,null,null,null,above,IBstimulus_absent,null,null,5152.73
5,65,2,vertical,vertical,null,null,null,1399.85,null,null,null,null,null,above,IBstimulus_absent,null,null,4685.96
5,65,3,vertical,vertical,yes,red,reportColor,1809.935,4248.405,1717.665,2451.74,3905.485,2753.905,above,IBstimulus_present,red,left,19855.215
5,66,0,vertical,vertical,null,null,null,4203.645,null,null,null,null,null,below,IBstimulus_absent,null,null,10779.475
5,66,1,horizontal,horizontal,null,null,null,2235.325,null,null,null,null,null,above,IBstimulus_absent,null,null,9141.245
5,66,2,horizontal,horizontal,null,null,null,2195.09,null,null,null,null,null,below,IBstimulus_absent,null,null,5689.94
5,66,3,horizontal,horizontal,no,blue,reportColor,2407.24,4310.45,14433.585,7252.81,4311.05,5164.155,below,IBstimulus_present,red,left,41551.46
5,67,0,vertical,vertical,null,null,null,3823,null,null,null,null,null,above,IBstimulus_absent,null,null,11548
5,67,1,vertical,vertical,null,null,null,2816,null,null,null,null,null,below,IBstimulus_absent,null,null,6808
5,67,2,vertical,vertical,null,null,null,3072,null,null,null,null,null,below,IBstimulus_absent,null,null,7421
5,67,3,vertical,horizontal,no,red,reportColor,4384,5814,12138,5837,2587,4851,above,IBstimulus_absent,null,null,39408
5,68,0,vertical,vertical,null,null,null,10294.965,null,null,null,null,null,below,IBstimulus_absent,null,null,19280.245
5,68,1,horizontal,horizontal,null,null,null,5290.22,null,null,null,null,null,above,IBstimulus_absent,null,null,9937.1
5,68,2,horizontal,horizontal,null,null,null,7838.685,null,null,null,null,null,below,IBstimulus_absent,null,null,14976.115
5,68,3,horizontal,vertical,no,blue,reportColor,5140.48,12563.75,12450.01,9199.955,6446.34,6479.69,above,IBstimulus_present,blue,left,58037.66
5,69,0,horizontal,horizontal,null,null,null,4891.775,null,null,null,null,null,below,IBstimulus_absent,null,null,12597.41
5,69,1,vertical,vertical,null,null,null,3326.075,null,null,null,null,null,below,IBstimulus_absent,null,null,8829.585
5,69,2,horizontal,horizontal,null,null,null,2535.615,null,null,null,null,null,below,IBstimulus_absent,null,null,6359.135
5,69,3,horizontal,horizontal,yes,blue,reportColor,2404.32,7663.385,11855.41,6687.525,3759.035,18671.54,above,IBstimulus_present,blue,right,54794.255
5,70,0,horizontal,horizontal,null,null,null,2463.11,null,null,null,null,null,below,IBstimulus_absent,null,null,7871.625
5,70,1,horizontal,vertical,null,null,null,2180.9,null,null,null,null,null,above,IBstimulus_absent,null,null,5809
5,70,2,vertical,vertical,null,null,null,2377.91,null,null,null,null,null,above,IBstimulus_absent,null,null,5717.84
5,70,3,horizontal,horizontal,no,red,reportColor,2099.99,5453.69,7629.275,7924.935,3034.745,3687.67,above,IBstimulus_absent,null,null,32456.49
5,71,0,vertical,horizontal,null,null,null,3326.7,null,null,null,null,null,above,IBstimulus_absent,null,null,7958.035
5,71,1,vertical,vertical,null,null,null,1858.81,null,null,null,null,null,below,IBstimulus_absent,null,null,6372.985
5,71,2,vertical,vertical,null,null,null,1741.66,null,null,null,null,null,below,IBstimulus_absent,null,null,10359.2
5,71,3,horizontal,horizontal,no,blue,reportColor,1695.18,4239.775,6264.025,6248.36,3719,4264.21,below,IBstimulus_absent,null,null,29502.99
5,72,0,horizontal,horizontal,null,null,null,4891.775,null,null,null,null,null,below,IBstimulus_absent,null,null,12597.41
5,72,1,vertical,vertical,null,null,null,3326.075,null,null,null,null,null,below,IBstimulus_absent,null,null,8829.585
5,72,2,horizontal,horizontal,null,null,null,2535.615,null,null,null,null,null,below,IBstimulus_absent,null,null,6359.135
5,72,3,horizontal,horizontal,yes,blue,reportColor,2404.32,7663.385,11855.41,6687.525,3759.035,18671.54,above,IBstimulus_present,blue,right,54794.255
5,73,0,vertical,vertical,null,null,null,2739,null,null,null,null,null,above,IBstimulus_absent,null,null,10784
5,73,1,horizontal,horizontal,null,null,null,2883,null,null,null,null,null,above,IBstimulus_absent,null,null,10128
5,73,2,horizontal,horizontal,null,null,null,2389,null,null,null,null,null,below,IBstimulus_absent,null,null,5961
5,73,3,vertical,vertical,no,blue,reportColor,1978,5998,12079,5970,3870,5509,below,IBstimulus_absent,null,null,41001
5,74,0,vertical,vertical,null,null,null,10014.76,null,null,null,null,null,above,IBstimulus_absent,null,null,21183.26
5,74,1,vertical,vertical,null,null,null,5131.14,null,null,null,null,null,above,IBstimulus_absent,null,null,12330.08
5,74,2,vertical,vertical,null,null,null,5384.22,null,null,null,null,null,below,IBstimulus_absent,null,null,10082.045
5,74,3,vertical,horizontal,yes,blue,reportColor,5356.36,10362.825,5214.785,13153.405,7023.55,9056.825,above,IBstimulus_present,red,left,54513.195
5,75,0,vertical,vertical,null,null,null,4474.55,null,null,null,null,null,below,IBstimulus_absent,null,null,13334.9
5,75,1,vertical,vertical,null,null,null,5137.905,null,null,null,null,null,below,IBstimulus_absent,null,null,15086.375
5,75,2,horizontal,horizontal,null,null,null,2535.92,null,null,null,null,null,below,IBstimulus_absent,null,null,7128.415
5,75,3,vertical,horizontal,no,blue,reportColor,5593.655,8019.68,13118.57,8454.835,10403.63,12541.205,below,IBstimulus_absent,null,null,62614.505
5,76,0,horizontal,horizontal,null,null,null,2951.845,null,null,null,null,null,above,IBstimulus_absent,null,null,7619.375
5,76,1,vertical,vertical,null,null,null,1222.67,null,null,null,null,null,below,IBstimulus_absent,null,null,4437.76
5,76,2,horizontal,horizontal,null,null,null,1257.76,null,null,null,null,null,below,IBstimulus_absent,null,null,4199.18
5,76,3,vertical,vertical,yes,blue,reportColor,2249.435,1975.6,3007.93,4095.5,2855.185,3599.9,above,IBstimulus_present,blue,right,20343.555
5,77,0,horizontal,horizontal,null,null,null,2348,null,null,null,null,null,above,IBstimulus_absent,null,null,11630
5,77,1,horizontal,horizontal,null,null,null,1880,null,null,null,null,null,above,IBstimulus_absent,null,null,5871
5,77,2,horizontal,horizontal,null,null,null,3255,null,null,null,null,null,below,IBstimulus_absent,null,null,8351
5,77,3,vertical,vertical,yes,red,reportColor,2754,2893,5009,5996,4330,9902,above,IBstimulus_present,red,left,34417
5,78,0,vertical,vertical,null,null,null,9514,null,null,null,null,null,above,IBstimulus_absent,null,null,27092
5,78,1,horizontal,horizontal,null,null,null,2153,null,null,null,null,null,above,IBstimulus_absent,null,null,6650
5,78,2,vertical,vertical,null,null,null,2141,null,null,null,null,null,above,IBstimulus_absent,null,null,7587
5,78,3,vertical,horizontal,no,red,reportColor,3632,8339,17184,22415,4438,7246,below,IBstimulus_absent,null,null,67267
5,79,0,vertical,null,null,null,null,null,null,null,null,null,null,below,IBstimulus_absent,null,null,
5,79,1,vertical,null,null,null,null,null,null,null,null,null,null,below,IBstimulus_absent,null,null,
5,79,2,horizontal,null,null,null,null,null,null,null,null,null,null,above,IBstimulus_absent,null,null,
5,79,3,horizontal,null,null,null,reportColor,null,null,null,null,null,null,above,IBstimulus_present,red,left,
5,80,0,vertical,vertical,null,null,null,4799.465,null,null,null,null,null,below,IBstimulus_absent,null,null,17529.195
5,80,1,vertical,vertical,null,null,null,1186.095,null,null,null,null,null,below,IBstimulus_absent,null,null,5192.305
5,80,2,horizontal,horizontal,null,null,null,2370.64,null,null,null,null,null,above,IBstimulus_absent,null,null,5738.505
5,80,3,vertical,vertical,no,blue,reportColor,4172.85,4165.815,7778.445,3594.21,3368.535,3151.615,below,IBstimulus_present,blue,right,29157.115
5,81,0,horizontal,horizontal,null,null,null,2514.055,null,null,null,null,null,above,IBstimulus_absent,null,null,8808.495
5,81,1,horizontal,horizontal,null,null,null,2110.56,null,null,null,null,null,below,IBstimulus_absent,null,null,7840.05
5,81,2,horizontal,horizontal,null,null,null,1432.355,null,null,null,null,null,above,IBstimulus_absent,null,null,4922.49
5,81,3,vertical,vertical,no,blue,reportColor,1198.63,4906.28,5033.61,4703.335,3039.815,4655.735,above,IBstimulus_absent,null,null,27259.935
5,82,0,horizontal,horizontal,null,null,null,2515.765,null,null,null,null,null,below,IBstimulus_absent,null,null,8654.11
5,82,1,vertical,vertical,null,null,null,1425.895,null,null,null,null,null,above,IBstimulus_absent,null,null,4540.68
5,82,2,horizontal,horizontal,null,null,null,1668.835,null,null,null,null,null,below,IBstimulus_absent,null,null,11045.03
5,82,3,vertical,vertical,no,blue,reportColor,1170.31,5630.62,7335.375,3393.82,6707.505,3452.4,below,IBstimulus_absent,null,null,30994.485
5,83,0,horizontal,horizontal,null,null,null,2788.255,null,null,null,null,null,below,IBstimulus_absent,null,null,13527.35
5,83,1,vertical,vertical,null,null,null,3526.2,null,null,null,null,null,below,IBstimulus_absent,null,null,8293.18
5,83,2,horizontal,horizontal,null,null,null,2466.795,null,null,null,null,null,below,IBstimulus_absent,null,null,5603.11
5,83,3,horizontal,horizontal,no,blue,reportColor,2768.35,7092.69,11657.73,7957.7,5175.655,4953.885,above,IBstimulus_absent,null,null,42596.965
5,84,0,vertical,vertical,null,null,null,2833.92,null,null,null,null,null,below,IBstimulus_absent,null,null,8828.525
5,84,1,vertical,vertical,null,null,null,3087.08,null,null,null,null,null,below,IBstimulus_absent,null,null,7172.04
5,84,2,vertical,vertical,null,null,null,1921.695,null,null,null,null,null,below,IBstimulus_absent,null,null,6784.58
5,84,3,horizontal,horizontal,yes,red,reportColor,2282.59,6385.695,9594.255,4458.915,3133.905,4602.34,below,IBstimulus_present,blue,left,34919.79
5,85,0,vertical,horizontal,null,null,null,4559,null,null,null,null,null,below,IBstimulus_absent,null,null,15673
5,85,1,horizontal,horizontal,null,null,null,3111,null,null,null,null,null,below,IBstimulus_absent,null,null,9969
5,85,2,vertical,vertical,null,null,null,21325,null,null,null,null,null,above,IBstimulus_absent,null,null,26589
5,85,3,horizontal,vertical,yes,red,reportColor,6140,5263,2541,4502,6163,4163,above,IBstimulus_present,red,left,36088
5,86,0,vertical,vertical,null,null,null,3714.89,null,null,null,null,null,below,IBstimulus_absent,null,null,9837.56
5,86,1,vertical,vertical,null,null,null,1159.67,null,null,null,null,null,below,IBstimulus_absent,null,null,5193.01
5,86,2,horizontal,horizontal,null,null,null,1330.34,null,null,null,null,null,above,IBstimulus_absent,null,null,4322.325
5,86,3,horizontal,horizontal,yes,blue,reportColor,6322.5,3037.44,4935.555,5008.895,5056.615,4699.67,below,IBstimulus_present,blue,left,32033.62
5,87,0,vertical,vertical,null,null,null,7393.62,null,null,null,null,null,above,IBstimulus_absent,null,null,12653.01
5,87,1,vertical,vertical,null,null,null,1980.41,null,null,null,null,null,above,IBstimulus_absent,null,null,9871.375
5,87,2,vertical,vertical,null,null,null,2014.9,null,null,null,null,null,below,IBstimulus_absent,null,null,20845.955
5,87,3,horizontal,horizontal,yes,red,reportColor,2498.095,4278.365,4860.39,5557.03,3534.71,4103.215,below,IBstimulus_present,red,left,28372.555
5,88,0,vertical,horizontal,null,null,null,79423,null,null,null,null,null,below,IBstimulus_absent,null,null,119537
5,88,1,horizontal,vertical,null,null,null,3949,null,null,null,null,null,below,IBstimulus_absent,null,null,17218
5,88,2,vertical,horizontal,null,null,null,8667,null,null,null,null,null,below,IBstimulus_absent,null,null,15998
5,88,3,vertical,vertical,no,blue,reportColor,3974,30961,65303,26161,8990,10742,above,IBstimulus_present,red,right,150442
5,89,0,vertical,vertical,null,null,null,6360.695,null,null,null,null,null,above,IBstimulus_absent,null,null,14380.82
5,89,1,horizontal,horizontal,null,null,null,3443.59,null,null,null,null,null,below,IBstimulus_absent,null,null,8198.09
5,89,2,vertical,vertical,null,null,null,3280,null,null,null,null,null,below,IBstimulus_absent,null,null,7760.095
5,89,3,vertical,vertical,yes,red,reportColor,2174.85,6039.49,5134.045,10524.51,4053.075,6980.695,below,IBstimulus_present,red,right,38042.585
5,90,0,horizontal,horizontal,null,null,null,3544,null,null,null,null,null,above,IBstimulus_absent,null,null,13600.3
5,90,1,vertical,vertical,null,null,null,1730.7,null,null,null,null,null,above,IBstimulus_absent,null,null,5888.9
5,90,2,horizontal,horizontal,null,null,null,1880.3,null,null,null,null,null,above,IBstimulus_absent,null,null,11805
5,90,3,horizontal,horizontal,no,blue,reportColor,1814.5,5944.4,7648.7,5512.4,4030.7,6365,above,IBstimulus_absent,null,null,37151.7
5,91,0,vertical,vertical,null,null,null,5702,null,null,null,null,null,above,IBstimulus_absent,null,null,20744
5,91,1,vertical,vertical,null,null,null,2368,null,null,null,null,null,above,IBstimulus_absent,null,null,5291
5,91,2,vertical,vertical,null,null,null,2187,null,null,null,null,null,below,IBstimulus_absent,null,null,12049
5,91,3,horizontal,horizontal,yes,red,reportColor,6382,7752,2982,5782,5278,6854,above,IBstimulus_present,red,right,41176
5,92,0,vertical,vertical,null,null,null,9405.9,null,null,null,null,null,above,IBstimulus_absent,null,null,18577.3
5,92,1,horizontal,vertical,null,null,null,5670.7,null,null,null,null,null,above,IBstimulus_absent,null,null,14201.7
5,92,2,vertical,vertical,null,null,null,3202.2,null,null,null,null,null,below,IBstimulus_absent,null,null,6461.7
5,92,3,horizontal,horizontal,no,blue,reportColor,2948.9,7300.5,11080.8,7279.1,4705.3,5690.3,below,IBstimulus_present,red,left,42418.5
5,93,0,vertical,vertical,null,null,null,2849.46,null,null,null,null,null,below,IBstimulus_absent,null,null,7519.705
5,93,1,vertical,vertical,null,null,null,1060.825,null,null,null,null,null,below,IBstimulus_absent,null,null,3962.55
5,93,2,horizontal,horizontal,null,null,null,1257.465,null,null,null,null,null,above,IBstimulus_absent,null,null,4276.93
5,93,3,vertical,vertical,no,red,reportColor,1615.27,4802.16,3473.185,6849.5,3108.88,3387.26,below,IBstimulus_absent,null,null,26079.465
5,94,0,vertical,vertical,null,null,null,3286,null,null,null,null,null,below,IBstimulus_absent,null,null,13790
5,94,1,vertical,horizontal,null,null,null,2818,null,null,null,null,null,above,IBstimulus_absent,null,null,6897
5,94,2,horizontal,horizontal,null,null,null,1153,null,null,null,null,null,below,IBstimulus_absent,null,null,5435
5,94,3,vertical,vertical,yes,blue,reportColor,1187,3306,3239,6924,3085,3582,above,IBstimulus_present,blue,right,25260
5,95,0,horizontal,horizontal,null,null,null,3513.54,null,null,null,null,null,below,IBstimulus_absent,null,null,9929.15
5,95,1,horizontal,horizontal,null,null,null,1461.085,null,null,null,null,null,above,IBstimulus_absent,null,null,5657.25
5,95,2,vertical,vertical,null,null,null,1320.98,null,null,null,null,null,below,IBstimulus_absent,null,null,4469.065
5,95,3,horizontal,horizontal,no,blue,reportColor,1375.715,5544.165,10233.46,7065.075,3477.56,4873.955,below,IBstimulus_absent,null,null,35608.565
5,96,0,horizontal,horizontal,null,null,null,7148.69,null,null,null,null,null,below,IBstimulus_absent,null,null,12405.165
5,96,1,horizontal,horizontal,null,null,null,2207.865,null,null,null,null,null,below,IBstimulus_absent,null,null,9704.295
5,96,2,vertical,vertical,null,null,null,2614.94,null,null,null,null,null,below,IBstimulus_absent,null,null,6039.67
5,96,3,vertical,vertical,no,blue,reportColor,1249.97,4838.54,7559.955,5775.765,3713.49,5107.915,below,IBstimulus_present,blue,right,31503.04
5,97,0,vertical,vertical,null,null,null,9756,null,null,null,null,null,above,IBstimulus_absent,null,null,54420.7
5,97,1,horizontal,horizontal,null,null,null,2998.3,null,null,null,null,null,above,IBstimulus_absent,null,null,18642.6
5,97,2,vertical,horizontal,null,null,null,3575.7,null,null,null,null,null,above,IBstimulus_absent,null,null,11042.3
5,97,3,horizontal,vertical,no,red,reportColor,3729.1,5834.9,9994.6,4675.2,15586.6,6929.1,below,IBstimulus_present,blue,right,62212.5
5,98,0,horizontal,vertical,null,null,null,5720.8,null,null,null,null,null,above,IBstimulus_absent,null,null,11784.3
5,98,1,horizontal,vertical,null,null,null,11973.5,null,null,null,null,null,below,IBstimulus_absent,null,null,17272.9
5,98,2,vertical,vertical,null,null,null,7013.5,null,null,null,null,null,above,IBstimulus_absent,null,null,11301.5
5,98,3,horizontal,horizontal,no,blue,reportColor,9745,4461.5,9915.5,10899.1,4395.4,5361.5,below,IBstimulus_absent,null,null,47490.1
5,99,0,horizontal,horizontal,null,null,null,4144.17,null,null,null,null,null,below,IBstimulus_absent,null,null,12462.44
5,99,1,vertical,vertical,null,null,null,3731.145,null,null,null,null,null,above,IBstimulus_absent,null,null,12096.64
5,99,2,vertical,vertical,null,null,null,1891.73,null,null,null,null,null,below,IBstimulus_absent,null,null,5564.74
5,99,3,vertical,vertical,no,blue,reportColor,1378.33,5504.755,11595.63,6526.42,5083.595,4562.17,above,IBstimulus_absent,null,null,38077.58
5,100,0,vertical,vertical,null,null,null,2415,null,null,null,null,null,below,IBstimulus_absent,null,null,11804
5,100,1,vertical,vertical,null,null,null,1696,null,null,null,null,null,below,IBstimulus_absent,null,null,15133
5,100,2,horizontal,horizontal,null,null,null,1927,null,null,null,null,null,below,IBstimulus_absent,null,null,12905
5,100,3,vertical,vertical,no,blue,reportColor,873,4177,6316,3601,3228,3214,below,IBstimulus_absent,null,null,24654
5,101,0,vertical,vertical,null,null,null,3919.055,null,null,null,null,null,above,IBstimulus_absent,null,null,11872.745
5,101,1,horizontal,horizontal,null,null,null,2788.5,null,null,null,null,null,below,IBstimulus_absent,null,null,6814.39
5,101,2,vertical,vertical,null,null,null,2939.725,null,null,null,null,null,above,IBstimulus_absent,null,null,6215.03
5,101,3,horizontal,horizontal,yes,red,reportColor,2441.99,9093.74,7559.755,12042.88,4047.47,11315.73,above,IBstimulus_present,red,right,49297.685
5,102,0,vertical,vertical,null,null,null,2201.13,null,null,null,null,null,above,IBstimulus_absent,null,null,8097.785
5,102,1,horizontal,horizontal,null,null,null,1242,null,null,null,null,null,below,IBstimulus_absent,null,null,4302.555
5,102,2,horizontal,horizontal,null,null,null,1614.215,null,null,null,null,null,above,IBstimulus_absent,null,null,4353.39
5,102,3,vertical,vertical,yes,red,reportColor,3957.755,3705.655,6079.58,6887.82,2503.45,3767.69,below,IBstimulus_present,red,right,29604.96
5,103,0,horizontal,horizontal,null,null,null,2348,null,null,null,null,null,above,IBstimulus_absent,null,null,11630
5,103,1,horizontal,horizontal,null,null,null,1880,null,null,null,null,null,above,IBstimulus_absent,null,null,5871
5,103,2,horizontal,horizontal,null,null,null,3255,null,null,null,null,null,below,IBstimulus_absent,null,null,8351
5,103,3,vertical,vertical,yes,red,reportColor,2754,2893,5009,5996,4330,9902,above,IBstimulus_present,red,left,34417
5,104,0,vertical,vertical,null,null,null,5702,null,null,null,null,null,above,IBstimulus_absent,null,null,20744
5,104,1,vertical,vertical,null,null,null,2368,null,null,null,null,null,above,IBstimulus_absent,null,null,5291
5,104,2,vertical,vertical,null,null,null,2187,null,null,null,null,null,below,IBstimulus_absent,null,null,12049
5,104,3,horizontal,horizontal,yes,red,reportColor,6382,7752,2982,5782,5278,6854,above,IBstimulus_present,red,right,41176
5,105,0,vertical,horizontal,null,null,null,3500.57,null,null,null,null,null,above,IBstimulus_absent,null,null,9343.195
5,105,1,vertical,vertical,null,null,null,1209.05,null,null,null,null,null,above,IBstimulus_absent,null,null,5616.315
5,105,2,vertical,vertical,null,null,null,894.6700003,null,null,null,null,null,above,IBstimulus_absent,null,null,3764.53
5,105,3,vertical,vertical,no,blue,reportColor,1125.565,6678.87,6308.775,3818.96,3211.315,3229.425,above,IBstimulus_absent,null,null,31620.38
5,106,0,horizontal,horizontal,null,null,null,2514.055,null,null,null,null,null,above,IBstimulus_absent,null,null,8808.495
5,106,1,horizontal,horizontal,null,null,null,2110.56,null,null,null,null,null,below,IBstimulus_absent,null,null,7840.05
5,106,2,horizontal,horizontal,null,null,null,1432.355,null,null,null,null,null,above,IBstimulus_absent,null,null,4922.49
5,106,3,vertical,vertical,no,blue,reportColor,1198.63,4906.28,5033.61,4703.335,3039.815,4655.735,above,IBstimulus_absent,null,null,27259.935
5,107,0,vertical,vertical,null,null,null,2853.68,null,null,null,null,null,below,IBstimulus_absent,null,null,9432.3
5,107,1,vertical,vertical,null,null,null,1727.99,null,null,null,null,null,below,IBstimulus_absent,null,null,8412.85
5,107,2,horizontal,horizontal,null,null,null,1185.145,null,null,null,null,null,above,IBstimulus_absent,null,null,4250.62
5,107,3,vertical,vertical,no,blue,reportColor,1542.785,3643.47,6182.21,5607.345,3250.79,3443.19,below,IBstimulus_absent,null,null,26519.675
5,108,0,horizontal,horizontal,null,null,null,3135,null,null,null,null,null,above,IBstimulus_absent,null,null,8906
5,108,1,horizontal,vertical,null,null,null,3511,null,null,null,null,null,above,IBstimulus_absent,null,null,10287
5,108,2,horizontal,horizontal,null,null,null,1764,null,null,null,null,null,above,IBstimulus_absent,null,null,5088
5,108,3,vertical,vertical,yes,blue,reportColor,1562,9011,6210,6708,3156,3679,above,IBstimulus_present,red,right,33351
5,109,0,horizontal,horizontal,null,null,null,2553,null,null,null,null,null,below,IBstimulus_absent,null,null,11309
5,109,1,horizontal,horizontal,null,null,null,2335,null,null,null,null,null,below,IBstimulus_absent,null,null,6510
5,109,2,vertical,vertical,null,null,null,1609,null,null,null,null,null,above,IBstimulus_absent,null,null,7945
5,109,3,horizontal,horizontal,yes,red,reportColor,5096,2733,7638,3884,3143,3994,above,IBstimulus_present,red,right,29765
5,110,0,horizontal,horizontal,null,null,null,2866.935,null,null,null,null,null,below,IBstimulus_absent,null,null,9690.99
5,110,1,horizontal,vertical,null,null,null,3236.455,null,null,null,null,null,above,IBstimulus_absent,null,null,7422.615
5,110,2,horizontal,horizontal,null,null,null,2181.42,null,null,null,null,null,above,IBstimulus_absent,null,null,7096.965
5,110,3,vertical,vertical,no,red,reportColor,2056.35,4597.415,7042.555,4225.225,5970.63,4193.845,above,IBstimulus_absent,null,null,32429.79
5,111,0,horizontal,horizontal,null,null,null,2051,null,null,null,null,null,below,IBstimulus_absent,null,null,9998
5,111,1,horizontal,horizontal,null,null,null,2774,null,null,null,null,null,below,IBstimulus_absent,null,null,6520
5,111,2,vertical,vertical,null,null,null,1751,null,null,null,null,null,below,IBstimulus_absent,null,null,5242
5,111,3,vertical,vertical,no,blue,reportColor,1706,4603,6949,7865,3547,10808,below,IBstimulus_absent,null,null,38409
5,112,0,vertical,null,null,null,null,null,null,null,null,null,null,above,IBstimulus_absent,null,null,
5,112,1,vertical,null,null,null,null,null,null,null,null,null,null,above,IBstimulus_absent,null,null,
5,112,2,vertical,null,null,null,null,null,null,null,null,null,null,below,IBstimulus_absent,null,null,
5,112,3,vertical,null,null,null,reportColor,null,null,null,null,null,null,above,IBstimulus_absent,null,null,
5,113,0,vertical,vertical,null,null,null,2903,null,null,null,null,null,above,IBstimulus_absent,null,null,7602
5,113,1,horizontal,horizontal,null,null,null,1953,null,null,null,null,null,below,IBstimulus_absent,null,null,5983
5,113,2,vertical,vertical,null,null,null,2136,null,null,null,null,null,above,IBstimulus_absent,null,null,5900
5,113,3,vertical,vertical,yes,red,reportColor,1899,4520,4422,5526,3452,4927,above,IBstimulus_present,red,left,28702
5,114,0,vertical,vertical,null,null,null,5793.579999,null,null,null,null,null,below,IBstimulus_absent,null,null,17798.985
5,114,1,horizontal,horizontal,null,null,null,2564.405,null,null,null,null,null,above,IBstimulus_absent,null,null,8179.885
5,114,2,horizontal,horizontal,null,null,null,2500.8,null,null,null,null,null,below,IBstimulus_absent,null,null,12983.495
5,114,3,vertical,vertical,yes,red,reportColor,2623.585,3767.82,1775.520001,7495.415,4440.115,4566.775001,below,IBstimulus_present,red,left,28327.975
5,115,0,horizontal,horizontal,null,null,null,1431.015,null,null,null,null,null,below,IBstimulus_absent,null,null,6677.985
5,115,1,vertical,vertical,null,null,null,1609.635,null,null,null,null,null,above,IBstimulus_absent,null,null,5243.28
5,115,2,horizontal,horizontal,null,null,null,1010.27,null,null,null,null,null,above,IBstimulus_absent,null,null,5649.815
5,115,3,horizontal,horizontal,no,blue,reportColor,1031.595,3802.945,5353.02,3527.915,2358.855,3588.99,above,IBstimulus_absent,null,null,23338.11
5,116,0,vertical,vertical,null,null,null,6752.79,null,null,null,null,null,above,IBstimulus_absent,null,null,14508.155
5,116,1,horizontal,horizontal,null,null,null,1889.075,null,null,null,null,null,above,IBstimulus_absent,null,null,10038.62
5,116,2,horizontal,horizontal,null,null,null,1344.41,null,null,null,null,null,above,IBstimulus_absent,null,null,6008.215
5,116,3,horizontal,horizontal,no,blue,reportColor,1573.925,5385.265,9998.275,9102.875,3586.415,6027.44,above,IBstimulus_present,red,right,39136.475
5,117,0,horizontal,horizontal,null,null,null,3159.33,null,null,null,null,null,above,IBstimulus_absent,null,null,167524.945
5,117,1,vertical,vertical,null,null,null,2865.91,null,null,null,null,null,below,IBstimulus_absent,null,null,7621.26
5,117,2,horizontal,horizontal,null,null,null,2177.495,null,null,null,null,null,above,IBstimulus_absent,null,null,6460.315
5,117,3,horizontal,horizontal,no,blue,reportColor,2313.845,6849.435,8787.94,7531.36,6959.76,8631.555,above,IBstimulus_present,blue,left,49855.22
5,118,0,horizontal,horizontal,null,null,null,4088.03,null,null,null,null,null,above,IBstimulus_absent,null,null,11787.745
5,118,1,vertical,vertical,null,null,null,2259.665,null,null,null,null,null,below,IBstimulus_absent,null,null,7516.6
5,118,2,vertical,vertical,null,null,null,1597.615,null,null,null,null,null,below,IBstimulus_absent,null,null,5518.445
5,118,3,horizontal,horizontal,yes,blue,reportColor,4449.535,3827.57,9568.075,8908.575,7555.275,19947.29,below,IBstimulus_present,blue,left,58708.315
5,119,0,horizontal,horizontal,null,null,null,2866.935,null,null,null,null,null,below,IBstimulus_absent,null,null,9690.99
5,119,1,horizontal,vertical,null,null,null,3236.455,null,null,null,null,null,above,IBstimulus_absent,null,null,7422.615
5,119,2,horizontal,horizontal,null,null,null,2181.42,null,null,null,null,null,above,IBstimulus_absent,null,null,7096.965
5,119,3,vertical,vertical,no,red,reportColor,2056.35,4597.415,7042.555,4225.225,5970.63,4193.845,above,IBstimulus_absent,null,null,32429.79
5,120,0,horizontal,horizontal,null,null,null,4835.375,null,null,null,null,null,below,IBstimulus_absent,null,null,10445.375
5,120,1,vertical,vertical,null,null,null,1855.295,null,null,null,null,null,below,IBstimulus_absent,null,null,7843.96
5,120,2,horizontal,horizontal,null,null,null,1668.955,null,null,null,null,null,below,IBstimulus_absent,null,null,8027.875
5,120,3,horizontal,horizontal,yes,blue,reportColor,2347.195,2956.055,6171.415,7467.93,3117.795,4648.285,below,IBstimulus_present,blue,right,30931.67
5,121,0,horizontal,vertical,null,null,null,5822,null,null,null,null,null,below,IBstimulus_absent,null,null,16053
5,121,1,vertical,vertical,null,null,null,5924,null,null,null,null,null,below,IBstimulus_absent,null,null,12091
5,121,2,horizontal,horizontal,null,null,null,4883,null,null,null,null,null,above,IBstimulus_absent,null,null,20074
5,121,3,horizontal,horizontal,no,blue,reportColor,7055,6235,23176,14527,14432,8765,above,IBstimulus_absent,null,null,78902
5,122,0,vertical,vertical,null,null,null,4534.645,null,null,null,null,null,below,IBstimulus_absent,null,null,13210.765
5,122,1,vertical,vertical,null,null,null,2906.535,null,null,null,null,null,above,IBstimulus_absent,null,null,13286.595
5,122,2,vertical,vertical,null,null,null,2294.075,null,null,null,null,null,below,IBstimulus_absent,null,null,6386.845
5,122,3,vertical,vertical,no,blue,reportColor,2814.96,8504.96,15975.185,13894.9,5229.245,7687.345,above,IBstimulus_absent,null,null,58353
5,123,0,vertical,vertical,null,null,null,2853.68,null,null,null,null,null,below,IBstimulus_absent,null,null,9432.3
5,123,1,vertical,vertical,null,null,null,1727.99,null,null,null,null,null,below,IBstimulus_absent,null,null,8412.85
5,123,2,horizontal,horizontal,null,null,null,1185.145,null,null,null,null,null,above,IBstimulus_absent,null,null,4250.62
5,123,3,vertical,vertical,no,blue,reportColor,1542.785,3643.47,6182.21,5607.345,3250.79,3443.19,below,IBstimulus_absent,null,null,26519.675
5,124,0,horizontal,horizontal,null,null,null,2647.005,null,null,null,null,null,above,IBstimulus_absent,null,null,8031.05
5,124,1,horizontal,horizontal,null,null,null,1922.28,null,null,null,null,null,below,IBstimulus_absent,null,null,9607.59
5,124,2,horizontal,horizontal,null,null,null,1715.125,null,null,null,null,null,above,IBstimulus_absent,null,null,5726.275
5,124,3,vertical,vertical,no,blue,reportColor,1371.395,2575.65,6115.58,3499.105,3327.02,3830.905,above,IBstimulus_absent,null,null,24369.955
5,125,0,vertical,vertical,null,null,null,2443,null,null,null,null,null,above,IBstimulus_absent,null,null,11864
5,125,1,horizontal,horizontal,null,null,null,1578,null,null,null,null,null,above,IBstimulus_absent,null,null,4999
5,125,2,vertical,vertical,null,null,null,1399,null,null,null,null,null,below,IBstimulus_absent,null,null,4483
5,125,3,horizontal,horizontal,yes,blue,reportColor,2088,2912,4347,3510,3168,3053,below,IBstimulus_present,blue,left,22655
5,126,0,vertical,vertical,null,null,null,3543,null,null,null,null,null,above,IBstimulus_absent,null,null,12124
5,126,1,horizontal,horizontal,null,null,null,2288,null,null,null,null,null,below,IBstimulus_absent,null,null,7968
5,126,2,vertical,vertical,null,null,null,1523,null,null,null,null,null,below,IBstimulus_absent,null,null,4720
5,126,3,vertical,vertical,yes,red,reportColor,2513,3634,4350,5142,4446,7235,below,IBstimulus_present,red,left,30404
5,127,0,vertical,vertical,null,null,null,2797.095,null,null,null,null,null,below,IBstimulus_absent,null,null,10563.725
5,127,1,vertical,vertical,null,null,null,2096.26,null,null,null,null,null,above,IBstimulus_absent,null,null,10427.64
5,127,2,vertical,vertical,null,null,null,1361.695,null,null,null,null,null,below,IBstimulus_absent,null,null,6212.47
5,127,3,vertical,vertical,no,red,reportColor,1830.175,8378.88,11302.06,5386.055,4307.32,4840.715,above,IBstimulus_present,blue,right,40121.81
5,128,0,horizontal,horizontal,null,null,null,3530.32,null,null,null,null,null,below,IBstimulus_absent,null,null,21418.475
5,128,1,vertical,vertical,null,null,null,2541.295,null,null,null,null,null,above,IBstimulus_absent,null,null,7994.11
5,128,2,horizontal,horizontal,null,null,null,2085.825,null,null,null,null,null,above,IBstimulus_absent,null,null,6795.715
5,128,3,vertical,vertical,no,blue,reportColor,2531.615,5547.265,10107.715,5103.175,3381.57,7053.775,above,IBstimulus_absent,null,null,39211.895
5,129,0,horizontal,horizontal,null,null,null,4716.865,null,null,null,null,null,above,IBstimulus_absent,null,null,14003.97
5,129,1,horizontal,horizontal,null,null,null,2927.375,null,null,null,null,null,above,IBstimulus_absent,null,null,8548.965
5,129,2,horizontal,horizontal,null,null,null,1666.24,null,null,null,null,null,above,IBstimulus_absent,null,null,7961.995
5,129,3,horizontal,horizontal,no,blue,reportColor,1603.05,4280.215,7592.225,6321.325,3261.275,4203.26,above,IBstimulus_absent,null,null,32825.565
5,130,0,horizontal,horizontal,null,null,null,2990,null,null,null,null,null,below,IBstimulus_absent,null,null,11891
5,130,1,horizontal,horizontal,null,null,null,1985,null,null,null,null,null,below,IBstimulus_absent,null,null,8622
5,130,2,horizontal,horizontal,null,null,null,2092,null,null,null,null,null,above,IBstimulus_absent,null,null,5870
5,130,3,horizontal,vertical,yes,red,reportColor,5769,3408,1791,7375,3592,5048,above,IBstimulus_present,red,right,31025
5,131,0,vertical,vertical,null,null,null,2887.115,null,null,null,null,null,below,IBstimulus_absent,null,null,7946.789999
5,131,1,vertical,vertical,null,null,null,1304.34,null,null,null,null,null,below,IBstimulus_absent,null,null,4462.695
5,131,2,vertical,vertical,null,null,null,1164.385,null,null,null,null,null,above,IBstimulus_absent,null,null,4408.275
5,131,3,vertical,vertical,yes,blue,reportColor,3916.585,2430.295,4056.895,5979.66,3947.685,4715.75,below,IBstimulus_present,blue,left,28308.05
5,132,0,vertical,vertical,null,null,null,4611,null,null,null,null,null,below,IBstimulus_absent,null,null,13319
5,132,1,horizontal,horizontal,null,null,null,1529,null,null,null,null,null,below,IBstimulus_absent,null,null,5366
5,132,2,horizontal,horizontal,null,null,null,1280,null,null,null,null,null,above,IBstimulus_absent,null,null,4849
5,132,3,horizontal,horizontal,no,red,reportColor,2959,5459,7942,6356,3516,9804,below,IBstimulus_absent,null,null,39083
5,133,0,horizontal,horizontal,null,null,null,3095.58,null,null,null,null,null,above,IBstimulus_absent,null,null,10407.4
5,133,1,horizontal,horizontal,null,null,null,1432.945,null,null,null,null,null,above,IBstimulus_absent,null,null,5085.935
5,133,2,horizontal,horizontal,null,null,null,2227.955,null,null,null,null,null,above,IBstimulus_absent,null,null,5127.66
5,133,3,horizontal,vertical,yes,red,reportColor,5047.14,3312.035,3024.28,4840.165,4192.32,5056.135,below,IBstimulus_present,red,right,28389.425
5,134,0,horizontal,horizontal,null,null,null,3795.24,null,null,null,null,null,below,IBstimulus_absent,null,null,10319.375
5,134,1,horizontal,horizontal,null,null,null,2445.11,null,null,null,null,null,below,IBstimulus_absent,null,null,6493.025
5,134,2,vertical,vertical,null,null,null,2279.555,null,null,null,null,null,above,IBstimulus_absent,null,null,5833.55
5,134,3,horizontal,horizontal,yes,blue,reportColor,1899.05,4031.845,3801.91,5283.305,2898.95,3975.995,above,IBstimulus_present,blue,right,25287.61
5,135,0,horizontal,horizontal,null,null,null,2731.875,null,null,null,null,null,below,IBstimulus_absent,null,null,20934.41
5,135,1,horizontal,horizontal,null,null,null,1653.46,null,null,null,null,null,below,IBstimulus_absent,null,null,5379.285
5,135,2,horizontal,horizontal,null,null,null,2081.745,null,null,null,null,null,below,IBstimulus_absent,null,null,6095.045
5,135,3,vertical,vertical,yes,blue,reportColor,1556.61,3204.735,2649.29,5115.21,2725.925,4676.11,above,IBstimulus_present,blue,left,23681.75
5,136,0,vertical,vertical,null,null,null,2960,null,null,null,null,null,below,IBstimulus_absent,null,null,20516
5,136,1,horizontal,horizontal,null,null,null,2402,null,null,null,null,null,below,IBstimulus_absent,null,null,6732
5,136,2,horizontal,horizontal,null,null,null,1725,null,null,null,null,null,above,IBstimulus_absent,null,null,6158
5,136,3,vertical,vertical,yes,blue,reportColor,3005,12578,7821,12300,6698,18167,below,IBstimulus_present,blue,right,64126
5,137,0,vertical,horizontal,null,null,null,6942.655,null,null,null,null,null,below,IBstimulus_absent,null,null,12549.475
5,137,1,vertical,vertical,null,null,null,2666.68,null,null,null,null,null,above,IBstimulus_absent,null,null,6552.32
5,137,2,horizontal,vertical,null,null,null,2908.46,null,null,null,null,null,below,IBstimulus_absent,null,null,5890.685
5,137,3,vertical,horizontal,no,red,reportColor,3493.355,5006.14,4978.24,6721.195,5296.78,20496.95,below,IBstimulus_present,red,right,49054.26
5,138,0,horizontal,vertical,null,null,null,5822,null,null,null,null,null,below,IBstimulus_absent,null,null,16053
5,138,1,vertical,vertical,null,null,null,5924,null,null,null,null,null,below,IBstimulus_absent,null,null,12091
5,138,2,horizontal,horizontal,null,null,null,4883,null,null,null,null,null,above,IBstimulus_absent,null,null,20074
5,138,3,horizontal,horizontal,no,blue,reportColor,7055,6235,23176,14527,14432,8765,above,IBstimulus_absent,null,null,78902
5,139,0,horizontal,horizontal,null,null,null,8191.17,null,null,null,null,null,below,IBstimulus_absent,null,null,13783.3
5,139,1,horizontal,horizontal,null,null,null,1774.485,null,null,null,null,null,above,IBstimulus_absent,null,null,6626.425
5,139,2,vertical,vertical,null,null,null,1577.055,null,null,null,null,null,above,IBstimulus_absent,null,null,4852.785
5,139,3,horizontal,horizontal,no,blue,reportColor,2150.76,4301.765,11188.23,5496.53,3372.59,3915.935,above,IBstimulus_absent,null,null,33288.15
5,140,0,vertical,vertical,null,null,null,3742.825,null,null,null,null,null,below,IBstimulus_absent,null,null,12325.045
5,140,1,horizontal,horizontal,null,null,null,2231.77,null,null,null,null,null,below,IBstimulus_absent,null,null,7845.52
5,140,2,vertical,vertical,null,null,null,1387.61,null,null,null,null,null,above,IBstimulus_absent,null,null,9447.63
5,140,3,horizontal,horizontal,no,blue,reportColor,1589.7,6147.42,6880.62,11296.415,3029.185,5086.185,below,IBstimulus_present,blue,right,37090.885
5,141,0,vertical,vertical,null,null,null,3543,null,null,null,null,null,above,IBstimulus_absent,null,null,12124
5,141,1,horizontal,horizontal,null,null,null,2288,null,null,null,null,null,below,IBstimulus_absent,null,null,7968
5,141,2,vertical,vertical,null,null,null,1523,null,null,null,null,null,below,IBstimulus_absent,null,null,4720
5,141,3,vertical,vertical,yes,red,reportColor,2513,3634,4350,5142,4446,7235,below,IBstimulus_present,red,left,30404
5,142,0,horizontal,horizontal,null,null,null,4110.68,null,null,null,null,null,above,IBstimulus_absent,null,null,12849.95
5,142,1,horizontal,horizontal,null,null,null,3111,null,null,null,null,null,below,IBstimulus_absent,null,null,9356.12
5,142,2,horizontal,horizontal,null,null,null,3789.215,null,null,null,null,null,above,IBstimulus_absent,null,null,7999.75
5,142,3,horizontal,horizontal,no,blue,reportColor,1922.97,4950.78,8536.45,4783.7,3623.22,4375.815,below,IBstimulus_present,blue,right,33441.575
5,143,0,horizontal,horizontal,null,null,null,1682.6,null,null,null,null,null,above,IBstimulus_absent,null,null,8024.97
5,143,1,horizontal,horizontal,null,null,null,1426.885,null,null,null,null,null,below,IBstimulus_absent,null,null,5451.245
5,143,2,horizontal,horizontal,null,null,null,1634.55,null,null,null,null,null,below,IBstimulus_absent,null,null,8234.755
5,143,3,vertical,vertical,yes,blue,reportColor,1590.985,2332.97,2291.765,2642.66,3136.32,2628.205,above,IBstimulus_present,blue,right,19810.14
5,144,0,vertical,vertical,null,null,null,2820.135,null,null,null,null,null,below,IBstimulus_absent,null,null,5429.295
5,144,1,horizontal,horizontal,null,null,null,1303.18,null,null,null,null,null,above,IBstimulus_absent,null,null,5534.315
5,144,2,vertical,vertical,null,null,null,2759.435,null,null,null,null,null,below,IBstimulus_absent,null,null,5367.625
5,144,3,vertical,vertical,yes,red,reportColor,2610.8,3343.84,1800.125,4376.46,2912.07,4048.16,below,IBstimulus_present,red,left,22219.975
5,145,0,vertical,vertical,null,null,null,2941.825,null,null,null,null,null,below,IBstimulus_absent,null,null,9247.82
5,145,1,vertical,vertical,null,null,null,2035.785,null,null,null,null,null,above,IBstimulus_absent,null,null,5786.8
5,145,2,horizontal,horizontal,null,null,null,1614.41,null,null,null,null,null,above,IBstimulus_absent,null,null,7226.59
5,145,3,horizontal,horizontal,no,blue,reportColor,2500.485,5355.38,10690.775,4076.135,3170.205,4997.22,below,IBstimulus_absent,null,null,34012.88
5,146,0,horizontal,horizontal,null,null,null,5357.705,null,null,null,null,null,below,IBstimulus_absent,null,null,12344.625
5,146,1,horizontal,horizontal,null,null,null,2510.71,null,null,null,null,null,above,IBstimulus_absent,null,null,11978.97
5,146,2,vertical,vertical,null,null,null,1972.055,null,null,null,null,null,below,IBstimulus_absent,null,null,6164.715
5,146,3,horizontal,horizontal,yes,red,reportColor,2097.635,4377.035,8989.725,7558.115,3483.38,5418.155,above,IBstimulus_present,red,left,36139.555
5,147,0,vertical,horizontal,null,null,null,5333.775,null,null,null,null,null,above,IBstimulus_absent,null,null,12126.365
5,147,1,vertical,vertical,null,null,null,6019.54,null,null,null,null,null,below,IBstimulus_absent,null,null,10291.18
5,147,2,vertical,horizontal,null,null,null,4346.515,null,null,null,null,null,above,IBstimulus_absent,null,null,10430.94
5,147,3,vertical,vertical,yes,blue,reportColor,3936.455,9158.01,7198.75,10547.115,6149.225,13210.495,above,IBstimulus_absent,null,null,54419.645
5,148,0,vertical,vertical,null,null,null,10887.38,null,null,null,null,null,below,IBstimulus_absent,null,null,16984.025
5,148,1,horizontal,vertical,null,null,null,3189.38,null,null,null,null,null,below,IBstimulus_absent,null,null,10033.28
5,148,2,horizontal,horizontal,null,null,null,2119.73,null,null,null,null,null,below,IBstimulus_absent,null,null,11195.955
5,148,3,horizontal,vertical,yes,red,reportColor,3952.245,2802.035,1922.91,12914.21,25561.05,4769.665,above,IBstimulus_present,red,right,58561.725
5,149,0,horizontal,horizontal,null,null,null,4268,null,null,null,null,null,above,IBstimulus_absent,null,null,11523
5,149,1,vertical,vertical,null,null,null,4815,null,null,null,null,null,above,IBstimulus_absent,null,null,9377
5,149,2,horizontal,horizontal,null,null,null,5011,null,null,null,null,null,above,IBstimulus_absent,null,null,8508
5,149,3,horizontal,horizontal,no,blue,reportColor,2842,3375,7675,10083,5204,5603,above,IBstimulus_present,blue,right,38037
5,150,0,vertical,vertical,null,null,null,3723.825,null,null,null,null,null,above,IBstimulus_absent,null,null,8771.495
5,150,1,vertical,vertical,null,null,null,1757.84,null,null,null,null,null,above,IBstimulus_absent,null,null,8642.84
5,150,2,horizontal,horizontal,null,null,null,1437.32,null,null,null,null,null,below,IBstimulus_absent,null,null,4762.355
5,150,3,horizontal,horizontal,yes,red,reportColor,1820.715,4320.62,3966.63,3742.96,3516.295,4258.95,below,IBstimulus_present,red,left,24774.225
5,151,0,horizontal,vertical,null,null,null,3869.24,null,null,null,null,null,above,IBstimulus_absent,null,null,9495.8
5,151,1,vertical,horizontal,null,null,null,6633.435,null,null,null,null,null,below,IBstimulus_absent,null,null,10344.985
5,151,2,vertical,horizontal,null,null,null,3991.97,null,null,null,null,null,below,IBstimulus_absent,null,null,7740.95
5,151,3,horizontal,horizontal,yes,blue,reportColor,4267.975,4387.65,2437.69,4619.8,4837.97,4473.53,above,IBstimulus_present,blue,right,28191.145
5,152,0,horizontal,horizontal,null,null,null,4551.725,null,null,null,null,null,above,IBstimulus_absent,null,null,11985.175
5,152,1,horizontal,horizontal,null,null,null,10556.44,null,null,null,null,null,below,IBstimulus_absent,null,null,21633.77
5,152,2,vertical,vertical,null,null,null,3201.44,null,null,null,null,null,below,IBstimulus_absent,null,null,7094.34
5,152,3,horizontal,horizontal,no,blue,reportColor,2977.515,5975.865,9746.52,5042.3,4146.01,5939.645,above,IBstimulus_absent,null,null,38099.11
5,153,0,vertical,vertical,null,null,null,3931,null,null,null,null,null,below,IBstimulus_absent,null,null,16834
5,153,1,horizontal,horizontal,null,null,null,5801,null,null,null,null,null,above,IBstimulus_absent,null,null,10108
5,153,2,horizontal,horizontal,null,null,null,3960,null,null,null,null,null,below,IBstimulus_absent,null,null,7678
5,153,3,horizontal,horizontal,no,blue,reportColor,2676,6376,10278,5387,4983,5816,below,IBstimulus_absent,null,null,38747
5,154,0,vertical,null,null,null,null,null,null,null,null,null,null,above,IBstimulus_absent,null,null,
5,154,1,horizontal,null,null,null,null,null,null,null,null,null,null,above,IBstimulus_absent,null,null,
5,154,2,horizontal,null,null,null,null,null,null,null,null,null,null,above,IBstimulus_absent,null,null,
5,154,3,vertical,null,null,null,reportColor,null,null,null,null,null,null,above,IBstimulus_absent,null,null,
5,155,0,horizontal,horizontal,null,null,null,3548,null,null,null,null,null,above,IBstimulus_absent,null,null,9935
5,155,1,vertical,vertical,null,null,null,1977,null,null,null,null,null,below,IBstimulus_absent,null,null,9766
5,155,2,horizontal,horizontal,null,null,null,2062,null,null,null,null,null,below,IBstimulus_absent,null,null,5874
5,155,3,vertical,vertical,yes,red,reportColor,1896,2983,2885,4737,3550,6735,below,IBstimulus_present,red,right,25897
5,156,0,vertical,null,null,null,null,null,null,null,null,null,null,above,IBstimulus_absent,null,null,
5,156,1,horizontal,null,null,null,null,null,null,null,null,null,null,below,IBstimulus_absent,null,null,
5,156,2,vertical,null,null,null,null,null,null,null,null,null,null,below,IBstimulus_absent,null,null,
5,156,3,vertical,null,null,null,reportColor,null,null,null,null,null,null,above,IBstimulus_present,blue,left,
5,157,0,horizontal,horizontal,null,null,null,6773.805,null,null,null,null,null,below,IBstimulus_absent,null,null,34418.08
5,157,1,horizontal,horizontal,null,null,null,4916.095,null,null,null,null,null,below,IBstimulus_absent,null,null,9879.07
5,157,2,vertical,vertical,null,null,null,2231.345,null,null,null,null,null,above,IBstimulus_absent,null,null,9760.025
5,157,3,horizontal,horizontal,no,red,reportColor,2148.86,11095.645,27479.675,16111.005,6632.67,10579.475,above,IBstimulus_present,red,left,82100.33
5,158,0,vertical,vertical,null,null,null,3931,null,null,null,null,null,below,IBstimulus_absent,null,null,16834
5,158,1,horizontal,horizontal,null,null,null,5801,null,null,null,null,null,above,IBstimulus_absent,null,null,10108
5,158,2,horizontal,horizontal,null,null,null,3960,null,null,null,null,null,below,IBstimulus_absent,null,null,7678
5,158,3,horizontal,horizontal,no,blue,reportColor,2676,6376,10278,5387,4983,5816,below,IBstimulus_absent,null,null,38747
5,159,0,vertical,null,null,null,null,null,null,null,null,null,null,below,IBstimulus_absent,null,null,
5,159,1,vertical,null,null,null,null,null,null,null,null,null,null,above,IBstimulus_absent,null,null,
5,159,2,horizontal,null,null,null,null,null,null,null,null,null,null,below,IBstimulus_absent,null,null,
5,159,3,horizontal,null,null,null,reportColor,null,null,null,null,null,null,above,IBstimulus_present,red,right,
5,160,0,horizontal,horizontal,null,null,null,8105.255,null,null,null,null,null,above,IBstimulus_absent,null,null,15849.385
5,160,1,horizontal,horizontal,null,null,null,3484.700002,null,null,null,null,null,above,IBstimulus_absent,null,null,7923.209999
5,160,2,horizontal,horizontal,null,null,null,4200.579997,null,null,null,null,null,above,IBstimulus_absent,null,null,8034.694999
5,160,3,horizontal,horizontal,no,red,reportColor,2483.25,12570.165,14702.845,13465.175,5131.32,5878.41,above,IBstimulus_present,red,right,57932.285
5,161,0,horizontal,horizontal,null,null,null,2878,null,null,null,null,null,above,IBstimulus_absent,null,null,11468
5,161,1,horizontal,horizontal,null,null,null,2033,null,null,null,null,null,below,IBstimulus_absent,null,null,5176
5,161,2,vertical,vertical,null,null,null,1682,null,null,null,null,null,above,IBstimulus_absent,null,null,5336
5,161,3,vertical,vertical,yes,blue,reportColor,1499,4276,5145,4006,3776,5217,above,IBstimulus_present,blue,right,27045
5,162,0,horizontal,horizontal,null,null,null,3323,null,null,null,null,null,above,IBstimulus_absent,null,null,14044
5,162,1,vertical,vertical,null,null,null,7174,null,null,null,null,null,below,IBstimulus_absent,null,null,13164
5,162,2,vertical,vertical,null,null,null,1952,null,null,null,null,null,below,IBstimulus_absent,null,null,7644
5,162,3,horizontal,horizontal,no,blue,reportColor,2058,7413,4697,4395,4161,5077,above,IBstimulus_absent,null,null,30907
5,163,0,horizontal,horizontal,null,null,null,5357.705,null,null,null,null,null,below,IBstimulus_absent,null,null,12344.625
5,163,1,horizontal,horizontal,null,null,null,2510.71,null,null,null,null,null,above,IBstimulus_absent,null,null,11978.97
5,163,2,vertical,vertical,null,null,null,1972.055,null,null,null,null,null,below,IBstimulus_absent,null,null,6164.715
5,163,3,horizontal,horizontal,yes,red,reportColor,2097.635,4377.035,8989.725,7558.115,3483.38,5418.155,above,IBstimulus_present,red,left,36139.555
5,164,0,horizontal,horizontal,null,null,null,11237.595,null,null,null,null,null,below,IBstimulus_absent,null,null,21600.69
5,164,1,vertical,vertical,null,null,null,8622.42,null,null,null,null,null,above,IBstimulus_absent,null,null,13530.31
5,164,2,vertical,vertical,null,null,null,3326.04,null,null,null,null,null,below,IBstimulus_absent,null,null,8108.31
5,164,3,horizontal,vertical,yes,blue,reportColor,5314.08,7720.22,10275.435,14259.505,5227.795,6477.84,above,IBstimulus_present,blue,left,53139.905
5,165,0,vertical,vertical,null,null,null,2515.105,null,null,null,null,null,below,IBstimulus_absent,null,null,10502.325
5,165,1,vertical,vertical,null,null,null,1830.09,null,null,null,null,null,below,IBstimulus_absent,null,null,6413.105
5,165,2,horizontal,horizontal,null,null,null,2376.605,null,null,null,null,null,below,IBstimulus_absent,null,null,6095.435
5,165,3,horizontal,horizontal,yes,red,reportColor,2919.2,6343.595,6671.375,10591.605,3183.86,4271.365,below,IBstimulus_present,red,right,37456.125
5,166,0,vertical,vertical,null,null,null,3493.855,null,null,null,null,null,above,IBstimulus_absent,null,null,12539.185
5,166,1,horizontal,horizontal,null,null,null,2372.805,null,null,null,null,null,above,IBstimulus_absent,null,null,8155.92
5,166,2,vertical,vertical,null,null,null,3532.73,null,null,null,null,null,below,IBstimulus_absent,null,null,7634.9
5,166,3,horizontal,horizontal,yes,blue,reportColor,2033.765,10250.805,14681.905,8097.3,4043.46,5473.465,above,IBstimulus_present,blue,right,48517.285
5,167,0,horizontal,vertical,null,null,null,3326.2,null,null,null,null,null,above,IBstimulus_absent,null,null,8181.335
5,167,1,horizontal,horizontal,null,null,null,1157.72,null,null,null,null,null,below,IBstimulus_absent,null,null,5009.145
5,167,2,horizontal,horizontal,null,null,null,972.335,null,null,null,null,null,below,IBstimulus_absent,null,null,4063.74
5,167,3,vertical,vertical,no,red,reportColor,1251.93,2975.7,2875.67,2274.82,2168.3,3894.46,below,IBstimulus_present,blue,right,18189.635
5,168,0,vertical,vertical,null,null,null,3172.445,null,null,null,null,null,below,IBstimulus_absent,null,null,14164.295
5,168,1,horizontal,horizontal,null,null,null,2340.02,null,null,null,null,null,above,IBstimulus_absent,null,null,7095.54
5,168,2,vertical,vertical,null,null,null,3835.695,null,null,null,null,null,below,IBstimulus_absent,null,null,8708.805
5,168,3,vertical,vertical,no,blue,reportColor,3142.4,7155.31,14460.295,8030.595,6914.46,10481.375,above,IBstimulus_present,blue,right,54859.565
5,169,0,vertical,vertical,null,null,null,6950.26,null,null,null,null,null,above,IBstimulus_absent,null,null,22431.59
5,169,1,vertical,vertical,null,null,null,3442.05,null,null,null,null,null,below,IBstimulus_absent,null,null,7987.54
5,169,2,horizontal,horizontal,null,null,null,3347.8,null,null,null,null,null,above,IBstimulus_absent,null,null,7013.265
5,169,3,vertical,vertical,no,red,reportColor,2612.93,8533.515,10359.525,13571.055,6169.15,16915.255,above,IBstimulus_present,blue,right,61730.575
5,170,0,vertical,vertical,null,null,null,2371.79,null,null,null,null,null,above,IBstimulus_absent,null,null,8076.26
5,170,1,vertical,vertical,null,null,null,1640.435,null,null,null,null,null,above,IBstimulus_absent,null,null,5449.175
5,170,2,vertical,vertical,null,null,null,2012.69,null,null,null,null,null,above,IBstimulus_absent,null,null,5115.395
5,170,3,vertical,vertical,yes,blue,reportColor,1781.71,2737.855,2999.82,3647.54,2708.975,3216.94,above,IBstimulus_present,blue,right,20240.43
5,171,0,vertical,vertical,null,null,null,6696.94,null,null,null,null,null,above,IBstimulus_absent,null,null,16785.485
5,171,1,horizontal,horizontal,null,null,null,3674.145,null,null,null,null,null,below,IBstimulus_absent,null,null,9184.435
5,171,2,vertical,vertical,null,null,null,3455.275,null,null,null,null,null,below,IBstimulus_absent,null,null,8661.195
5,171,3,horizontal,horizontal,yes,red,reportColor,4554.985,7515.075,6192.235,5560.995,8683.03,8324.495,above,IBstimulus_present,red,left,45013.63
5,172,0,horizontal,horizontal,null,null,null,3571,null,null,null,null,null,below,IBstimulus_absent,null,null,10090
5,172,1,horizontal,horizontal,null,null,null,2310,null,null,null,null,null,below,IBstimulus_absent,null,null,6622
5,172,2,horizontal,horizontal,null,null,null,2545,null,null,null,null,null,below,IBstimulus_absent,null,null,6000
5,172,3,vertical,vertical,yes,red,reportColor,2583,3862,6488,4515,3545,4666,above,IBstimulus_absent,null,null,28852
5,173,0,vertical,vertical,null,null,null,6558.285,null,null,null,null,null,above,IBstimulus_absent,null,null,13850.085
5,173,1,vertical,vertical,null,null,null,3283.085,null,null,null,null,null,above,IBstimulus_absent,null,null,7805.735
5,173,2,vertical,vertical,null,null,null,2828.67,null,null,null,null,null,above,IBstimulus_absent,null,null,7077.685
5,173,3,vertical,vertical,yes,red,reportColor,2561.06,7069.245,5777.26,20258.395,5240.16,7695.735,below,IBstimulus_present,red,left,53237.055
5,174,0,horizontal,horizontal,null,null,null,2956,null,null,null,null,null,below,IBstimulus_absent,null,null,8263
5,174,1,horizontal,vertical,null,null,null,2170,null,null,null,null,null,above,IBstimulus_absent,null,null,5550
5,174,2,vertical,vertical,null,null,null,3961,null,null,null,null,null,above,IBstimulus_absent,null,null,6424
5,174,3,vertical,vertical,no,blue,reportColor,2030,4548,9988,7505,2935,4924,below,IBstimulus_absent,null,null,35054
5,175,0,vertical,vertical,null,null,null,3132,null,null,null,null,null,below,IBstimulus_absent,null,null,12449
5,175,1,vertical,vertical,null,null,null,1452,null,null,null,null,null,below,IBstimulus_absent,null,null,11782
5,175,2,vertical,vertical,null,null,null,1844,null,null,null,null,null,below,IBstimulus_absent,null,null,5809
5,175,3,vertical,vertical,yes,blue,reportColor,1665,4811,5213,3335,3305,4245,above,IBstimulus_present,blue,left,31954
5,176,0,horizontal,horizontal,null,null,null,3233.55,null,null,null,null,null,above,IBstimulus_absent,null,null,8477.155
5,176,1,horizontal,horizontal,null,null,null,1894.5,null,null,null,null,null,below,IBstimulus_absent,null,null,7045.04
5,176,2,vertical,vertical,null,null,null,1640.725,null,null,null,null,null,below,IBstimulus_absent,null,null,4603.455
5,176,3,horizontal,horizontal,yes,blue,reportColor,1480.075,2721.06,5895.925,6718.21,3375.56,6821.835,above,IBstimulus_present,blue,left,29641.83
5,177,0,vertical,vertical,null,null,null,3914.695,null,null,null,null,null,below,IBstimulus_absent,null,null,8764.13
5,177,1,vertical,vertical,null,null,null,2312.865,null,null,null,null,null,above,IBstimulus_absent,null,null,8226.515
5,177,2,vertical,vertical,null,null,null,1471.21,null,null,null,null,null,below,IBstimulus_absent,null,null,5514.73
5,177,3,vertical,vertical,yes,blue,reportColor,1843.71,3399.675,3877.87,6185.69,3104.925,7092.57,above,IBstimulus_present,blue,left,28502.73
5,178,0,horizontal,vertical,null,null,null,3680.68,null,null,null,null,null,below,IBstimulus_absent,null,null,28870.155
5,178,1,horizontal,horizontal,null,null,null,5268.63,null,null,null,null,null,above,IBstimulus_absent,null,null,14053.46
5,178,2,vertical,vertical,null,null,null,2415.045,null,null,null,null,null,above,IBstimulus_absent,null,null,5711.205
5,178,3,vertical,vertical,yes,blue,reportColor,2601.57,9687.77,10871.755,10823.74,4999.75,6935.81,above,IBstimulus_present,red,left,50063.88
5,179,0,horizontal,horizontal,null,null,null,3365.09,null,null,null,null,null,below,IBstimulus_absent,null,null,15217.805
5,179,1,horizontal,horizontal,null,null,null,3162.1,null,null,null,null,null,above,IBstimulus_absent,null,null,6928.165
5,179,2,horizontal,horizontal,null,null,null,1284.765,null,null,null,null,null,above,IBstimulus_absent,null,null,4738.74
5,179,3,horizontal,horizontal,yes,blue,reportColor,4808.39,4527.01,13407.76,8529.495,4447.04,5425.235,below,IBstimulus_present,blue,right,44013.725
5,180,0,vertical,vertical,null,null,null,1421.385,null,null,null,null,null,below,IBstimulus_absent,null,null,6414.125
5,180,1,vertical,vertical,null,null,null,1289.05,null,null,null,null,null,below,IBstimulus_absent,null,null,5093.465
5,180,2,vertical,vertical,null,null,null,1333.16,null,null,null,null,null,below,IBstimulus_absent,null,null,6790.85
5,180,3,horizontal,horizontal,yes,red,reportColor,1423.81,3143.615,2151.645,2527.605,2159.925,2911.25,above,IBstimulus_present,red,right,18441.96
5,181,0,horizontal,horizontal,null,null,null,3095.58,null,null,null,null,null,above,IBstimulus_absent,null,null,10407.4
5,181,1,horizontal,horizontal,null,null,null,1432.945,null,null,null,null,null,above,IBstimulus_absent,null,null,5085.935
5,181,2,horizontal,horizontal,null,null,null,2227.955,null,null,null,null,null,above,IBstimulus_absent,null,null,5127.66
5,181,3,horizontal,vertical,yes,red,reportColor,5047.14,3312.035,3024.28,4840.165,4192.32,5056.135,below,IBstimulus_present,red,right,28389.425
5,182,0,horizontal,horizontal,null,null,null,4353.08,null,null,null,null,null,below,IBstimulus_absent,null,null,12363.285
5,182,1,horizontal,horizontal,null,null,null,2711.76,null,null,null,null,null,above,IBstimulus_absent,null,null,10017.815
5,182,2,vertical,vertical,null,null,null,2866.35,null,null,null,null,null,above,IBstimulus_absent,null,null,8823.14
5,182,3,horizontal,horizontal,no,blue,reportColor,3101.15,13246.75,9036.175,11026.45,5548.315,7495.455,above,IBstimulus_present,blue,left,56655.275
5,183,0,vertical,vertical,null,null,null,3442.26,null,null,null,null,null,above,IBstimulus_absent,null,null,11738.38
5,183,1,horizontal,horizontal,null,null,null,1793.74,null,null,null,null,null,above,IBstimulus_absent,null,null,6011.98
5,183,2,vertical,vertical,null,null,null,1821.2,null,null,null,null,null,below,IBstimulus_absent,null,null,6006.085
5,183,3,horizontal,horizontal,no,blue,reportColor,1904.44,4112.495,6845.47,3278.065,3250.425,12176.295,above,IBstimulus_absent,null,null,36078.8
5,184,0,horizontal,horizontal,null,null,null,2813.23,null,null,null,null,null,above,IBstimulus_absent,null,null,10239.305
5,184,1,horizontal,horizontal,null,null,null,5138.78,null,null,null,null,null,above,IBstimulus_absent,null,null,8773.615
5,184,2,horizontal,horizontal,null,null,null,3881.26,null,null,null,null,null,above,IBstimulus_absent,null,null,7475.305
5,184,3,horizontal,horizontal,no,blue,reportColor,4458.67,7807.8,16047.76,7475.97,3659.56,6427.675,above,IBstimulus_absent,null,null,49347.77
5,185,0,vertical,null,null,null,null,null,null,null,null,null,null,above,IBstimulus_absent,null,null,
5,185,1,vertical,null,null,null,null,null,null,null,null,null,null,above,IBstimulus_absent,null,null,
5,185,2,vertical,null,null,null,null,null,null,null,null,null,null,above,IBstimulus_absent,null,null,
5,185,3,horizontal,null,null,null,reportColor,null,null,null,null,null,null,below,IBstimulus_present,blue,left,
5,186,0,horizontal,horizontal,null,null,null,2065.415,null,null,null,null,null,above,IBstimulus_absent,null,null,7613.695
5,186,1,horizontal,horizontal,null,null,null,1784.755,null,null,null,null,null,above,IBstimulus_absent,null,null,10683.89
5,186,2,vertical,vertical,null,null,null,1418.395,null,null,null,null,null,below,IBstimulus_absent,null,null,5038.805
5,186,3,horizontal,horizontal,no,blue,reportColor,1281.93,2608.83,7841.34,4150.435,2541.855,3384.485,below,IBstimulus_absent,null,null,24955.835
5,187,0,horizontal,horizontal,null,null,null,4486,null,null,null,null,null,below,IBstimulus_absent,null,null,16862
5,187,1,horizontal,horizontal,null,null,null,2755,null,null,null,null,null,above,IBstimulus_absent,null,null,7671
5,187,2,horizontal,horizontal,null,null,null,2768,null,null,null,null,null,above,IBstimulus_absent,null,null,7824
5,187,3,horizontal,vertical,yes,red,reportColor,5389,3861,1203,5126,3125,3593,above,IBstimulus_present,red,right,26949
5,188,0,horizontal,vertical,null,null,null,3073.95,null,null,null,null,null,above,IBstimulus_absent,null,null,8526.305
5,188,1,vertical,horizontal,null,null,null,4118.555,null,null,null,null,null,below,IBstimulus_absent,null,null,9588.135
5,188,2,vertical,vertical,null,null,null,1612.44,null,null,null,null,null,above,IBstimulus_absent,null,null,6840.825
5,188,3,vertical,vertical,yes,blue,reportColor,1363.065,4342.17,2312.2,6527.37,4791.605,6120.2,below,IBstimulus_present,blue,right,29981.395
5,189,0,horizontal,horizontal,null,null,null,6185,null,null,null,null,null,above,IBstimulus_absent,null,null,43485
5,189,1,vertical,vertical,null,null,null,4888,null,null,null,null,null,below,IBstimulus_absent,null,null,10734
5,189,2,vertical,vertical,null,null,null,5234,null,null,null,null,null,above,IBstimulus_absent,null,null,8560
5,189,3,vertical,vertical,no,blue,reportColor,5167,9177,13251,6730,5565,7161,below,IBstimulus_absent,null,null,50880
5,190,0,horizontal,horizontal,null,null,null,2571.52,null,null,null,null,null,below,IBstimulus_absent,null,null,8555.115
5,190,1,horizontal,horizontal,null,null,null,1991.475,null,null,null,null,null,below,IBstimulus_absent,null,null,5748.11
5,190,2,vertical,vertical,null,null,null,1373.32,null,null,null,null,null,below,IBstimulus_absent,null,null,4631.32
5,190,3,vertical,vertical,no,blue,reportColor,1891.57,3649.645,5369.59,3320.3,3081.18,3915.06,below,IBstimulus_present,blue,right,24403.25
5,191,0,vertical,vertical,null,null,null,2192,null,null,null,null,null,below,IBstimulus_absent,null,null,10436
5,191,1,vertical,vertical,null,null,null,2245,null,null,null,null,null,above,IBstimulus_absent,null,null,6718
5,191,2,horizontal,horizontal,null,null,null,1796,null,null,null,null,null,above,IBstimulus_absent,null,null,5939
5,191,3,horizontal,horizontal,no,blue,reportColor,1723,3990,12429,5380,3141,4493,above,IBstimulus_absent,null,null,35627
5,192,0,vertical,horizontal,null,null,null,3959.785,null,null,null,null,null,above,IBstimulus_absent,null,null,8707.925
5,192,1,vertical,vertical,null,null,null,2686.505,null,null,null,null,null,above,IBstimulus_absent,null,null,9648.415
5,192,2,vertical,vertical,null,null,null,1893.065,null,null,null,null,null,above,IBstimulus_absent,null,null,4705.575
5,192,3,horizontal,horizontal,yes,red,reportColor,2771.095,3280.69,2000.125,6114.79,4292.705,4140.625,below,IBstimulus_present,red,right,25340.805
5,193,0,vertical,vertical,null,null,null,4882.2,null,null,null,null,null,above,IBstimulus_absent,null,null,12612.6
5,193,1,vertical,vertical,null,null,null,2468.6,null,null,null,null,null,below,IBstimulus_absent,null,null,8276.5
5,193,2,horizontal,horizontal,null,null,null,2455.4,null,null,null,null,null,above,IBstimulus_absent,null,null,6773.4
5,193,3,vertical,vertical,no,red,reportColor,2054.1,6894.3,9129.5,6809.2,3730,7348.3,above,IBstimulus_absent,null,null,39579.1
5,194,0,vertical,vertical,null,null,null,3136.675,null,null,null,null,null,below,IBstimulus_absent,null,null,9083.68
5,194,1,horizontal,horizontal,null,null,null,1945.295,null,null,null,null,null,above,IBstimulus_absent,null,null,6953.155
5,194,2,horizontal,horizontal,null,null,null,1812.46,null,null,null,null,null,above,IBstimulus_absent,null,null,7840.81
5,194,3,horizontal,horizontal,yes,blue,reportColor,1790.085,2975.73,5091.9,5066.34,3483.94,5141.22,above,IBstimulus_present,blue,right,27315.175
5,195,0,horizontal,horizontal,null,null,null,3447,null,null,null,null,null,above,IBstimulus_absent,null,null,11408
5,195,1,horizontal,horizontal,null,null,null,1626,null,null,null,null,null,above,IBstimulus_absent,null,null,5236
5,195,2,vertical,vertical,null,null,null,1344,null,null,null,null,null,above,IBstimulus_absent,null,null,4178
5,195,3,vertical,vertical,yes,red,reportColor,2560,2297,1381,5891,2468,3409,below,IBstimulus_present,red,right,21534
5,196,0,horizontal,horizontal,null,null,null,2951.845,null,null,null,null,null,above,IBstimulus_absent,null,null,7619.375
5,196,1,vertical,vertical,null,null,null,1222.67,null,null,null,null,null,below,IBstimulus_absent,null,null,4437.76
5,196,2,horizontal,horizontal,null,null,null,1257.76,null,null,null,null,null,below,IBstimulus_absent,null,null,4199.18
5,196,3,vertical,vertical,yes,blue,reportColor,2249.435,1975.6,3007.93,4095.5,2855.185,3599.9,above,IBstimulus_present,blue,right,20343.555
5,197,0,horizontal,null,null,null,null,null,null,null,null,null,null,above,IBstimulus_absent,null,null,
5,197,1,horizontal,null,null,null,null,null,null,null,null,null,null,above,IBstimulus_absent,null,null,
5,197,2,horizontal,null,null,null,null,null,null,null,null,null,null,above,IBstimulus_absent,null,null,
5,197,3,vertical,null,null,null,reportColor,null,null,null,null,null,null,below,IBstimulus_present,blue,left,
5,198,0,horizontal,horizontal,null,null,null,2676.315,null,null,null,null,null,below,IBstimulus_absent,null,null,7788.085
5,198,1,horizontal,horizontal,null,null,null,1964.175,null,null,null,null,null,below,IBstimulus_absent,null,null,6647.685
5,198,2,horizontal,horizontal,null,null,null,2981.885,null,null,null,null,null,above,IBstimulus_absent,null,null,8593.675
5,198,3,vertical,vertical,yes,red,reportColor,3419.14,3184.175,4513.145,4889.13,3118.92,3992.94,above,IBstimulus_present,red,left,27512.185
5,199,0,vertical,vertical,null,null,null,3733.915,null,null,null,null,null,below,IBstimulus_absent,null,null,11886.16
5,199,1,horizontal,horizontal,null,null,null,1756.604999,null,null,null,null,null,above,IBstimulus_absent,null,null,6724.465
5,199,2,horizontal,horizontal,null,null,null,1325.625,null,null,null,null,null,above,IBstimulus_absent,null,null,5244.64
5,199,3,horizontal,horizontal,no,blue,reportColor,2793.49,3242.985,8617.605,4471.195,4403.435,5408.78,below,IBstimulus_absent,null,null,32322.685
5,200,0,vertical,vertical,null,null,null,3039.605,null,null,null,null,null,below,IBstimulus_absent,null,null,12604.415
5,200,1,vertical,vertical,null,null,null,3947.135,null,null,null,null,null,below,IBstimulus_absent,null,null,9805.69
5,200,2,vertical,vertical,null,null,null,2046.415,null,null,null,null,null,above,IBstimulus_absent,null,null,7615.37
5,200,3,vertical,vertical,no,blue,reportColor,1816.11,3871.67,8135.4,5455.88,2999.785,4936.455,above,IBstimulus_present,red,left,31554.35
5,201,0,horizontal,horizontal,null,null,null,5563.075,null,null,null,null,null,below,IBstimulus_absent,null,null,15774.025
5,201,1,horizontal,horizontal,null,null,null,2645.385,null,null,null,null,null,above,IBstimulus_absent,null,null,7237.345
5,201,2,vertical,vertical,null,null,null,2256.67,null,null,null,null,null,below,IBstimulus_absent,null,null,6985.49
5,201,3,horizontal,horizontal,no,blue,reportColor,1797.635,6693.135,14059.61,8791.72,4144.51,4921.04,below,IBstimulus_absent,null,null,46859.985
5,202,0,horizontal,horizontal,null,null,null,4698.79,null,null,null,null,null,below,IBstimulus_absent,null,null,12104.47
5,202,1,vertical,vertical,null,null,null,1738.195,null,null,null,null,null,above,IBstimulus_absent,null,null,7998.61
5,202,2,vertical,vertical,null,null,null,1801.515,null,null,null,null,null,below,IBstimulus_absent,null,null,6262.29
5,202,3,horizontal,horizontal,no,blue,reportColor,2151.31,5087.075,7279.84,8334.075,3752.045,4782.98,above,IBstimulus_present,red,right,34662.87
5,203,0,horizontal,vertical,null,null,null,5217.805,null,null,null,null,null,above,IBstimulus_absent,null,null,13026.01
5,203,1,horizontal,horizontal,null,null,null,2567.825,null,null,null,null,null,below,IBstimulus_absent,null,null,14542.47
5,203,2,vertical,vertical,null,null,null,1705.275,null,null,null,null,null,below,IBstimulus_absent,null,null,5935.835
