batchNum ,subjectID ,trialNum,longerArm,response_longerArm,response_yesNo,response_AFC,AFCquestion,RT_longerArm,RT_yesNo,RT_AFC,RT_IBfamiliarity,RT_age,RT_ishihara,aboveBelow,trialType,IBstimulus_color,IBstimulus_location,trialTime
7,0,0,horizontal,vertical,null,null,null,2336,null,null,null,null,null,below,IBstimulus_absent,null,null,6420
7,0,1,horizontal,vertical,null,null,null,1892,null,null,null,null,null,below,IBstimulus_absent,null,null,5364
7,0,2,vertical,horizontal,null,null,null,14880,null,null,null,null,null,below,IBstimulus_absent,null,null,18370
7,0,3,vertical,vertical,yes,blue,reportColor,8638,29614,1186,4178,3726,4254,above,IBstimulus_present,blue,left,55070
7,1,0,horizontal,null,null,null,null,null,null,null,null,null,null,below,IBstimulus_absent,null,null,
7,1,1,vertical,null,null,null,null,null,null,null,null,null,null,above,IBstimulus_absent,null,null,
7,1,2,vertical,null,null,null,null,null,null,null,null,null,null,above,IBstimulus_absent,null,null,
7,1,3,vertical,null,null,null,reportColor,null,null,null,null,null,null,above,IBstimulus_present,red,left,
7,2,0,horizontal,horizontal,null,null,null,2924.905,null,null,null,null,null,below,IBstimulus_absent,null,null,9167.13
7,2,1,horizontal,horizontal,null,null,null,1869.92,null,null,null,null,null,below,IBstimulus_absent,null,null,5559.285
7,2,2,horizontal,horizontal,null,null,null,2459.545,null,null,null,null,null,below,IBstimulus_absent,null,null,5738.84
7,2,3,horizontal,horizontal,yes,blue,reportColor,1701.11,3373.93,5801.165,4832.12,3469.75,4311.65,below,IBstimulus_present,blue,left,26871.855
7,3,0,vertical,vertical,null,null,null,3961.2,null,null,null,null,null,below,IBstimulus_absent,null,null,9868.895
7,3,1,vertical,vertical,null,null,null,3551.51,null,null,null,null,null,above,IBstimulus_absent,null,null,12606.26
7,3,2,vertical,vertical,null,null,null,2044.275,null,null,null,null,null,below,IBstimulus_absent,null,null,6508.12
7,3,3,vertical,vertical,yes,red,reportColor,3508.83,3565.975,7677.065,8286.58,5706.63,8576.91,above,IBstimulus_present,red,left,41421.15
7,4,0,vertical,vertical,null,null,null,10132.125,null,null,null,null,null,below,IBstimulus_absent,null,null,17465.575
7,4,1,horizontal,horizontal,null,null,null,4450.56,null,null,null,null,null,below,IBstimulus_absent,null,null,17869.665
7,4,2,vertical,vertical,null,null,null,3567.825,null,null,null,null,null,below,IBstimulus_absent,null,null,12399.165
7,4,3,vertical,vertical,no,blue,reportColor,4119.42,8002.39,13080.565,9022.015,4359.05,8107.095,below,IBstimulus_absent,null,null,51982.645
7,5,0,horizontal,vertical,null,null,null,4224,null,null,null,null,null,below,IBstimulus_absent,null,null,8774
7,5,1,horizontal,horizontal,null,null,null,2170,null,null,null,null,null,above,IBstimulus_absent,null,null,7340
7,5,2,horizontal,horizontal,null,null,null,2362,null,null,null,null,null,above,IBstimulus_absent,null,null,5875
7,5,3,horizontal,horizontal,yes,blue,reportColor,3123,3012,9516,5915,3339,4341,below,IBstimulus_present,blue,left,32487
7,6,0,horizontal,horizontal,null,null,null,2193,null,null,null,null,null,below,IBstimulus_absent,null,null,10035
7,6,1,horizontal,horizontal,null,null,null,2325,null,null,null,null,null,above,IBstimulus_absent,null,null,5298
7,6,2,horizontal,horizontal,null,null,null,1652,null,null,null,null,null,above,IBstimulus_absent,null,null,9531
7,6,3,horizontal,horizontal,no,red,reportColor,1995,4063,7103,4879,3064,6096,above,IBstimulus_present,blue,left,30295
7,7,0,horizontal,null,null,null,null,null,null,null,null,null,null,below,IBstimulus_absent,null,null,
7,7,1,vertical,null,null,null,null,null,null,null,null,null,null,above,IBstimulus_absent,null,null,
7,7,2,vertical,null,null,null,null,null,null,null,null,null,null,above,IBstimulus_absent,null,null,
7,7,3,vertical,null,null,null,reportColor,null,null,null,null,null,null,above,IBstimulus_present,red,left,
7,8,0,horizontal,horizontal,null,null,null,2795.575,null,null,null,null,null,above,IBstimulus_absent,null,null,11372.155
7,8,1,vertical,vertical,null,null,null,2406.195,null,null,null,null,null,above,IBstimulus_absent,null,null,5768.91
7,8,2,horizontal,horizontal,null,null,null,1372.5,null,null,null,null,null,below,IBstimulus_absent,null,null,4484.6
7,8,3,vertical,vertical,yes,blue,reportColor,1573.355,3403.435,3600.605,7473.325,11534.44,4746.675,below,IBstimulus_present,blue,right,39384.79
7,9,0,vertical,vertical,null,null,null,2703.475,null,null,null,null,null,below,IBstimulus_absent,null,null,11304.09
7,9,1,vertical,vertical,null,null,null,1848.625,null,null,null,null,null,below,IBstimulus_absent,null,null,5786.43
7,9,2,horizontal,horizontal,null,null,null,1526.53,null,null,null,null,null,below,IBstimulus_absent,null,null,4743.275
7,9,3,vertical,horizontal,yes,red,reportColor,2495.305,3301.15,6183.51,5877.17,3062.225,4853.225,above,IBstimulus_present,red,left,29264.79
7,10,0,vertical,vertical,null,null,null,2517.995,null,null,null,null,null,below,IBstimulus_absent,null,null,11201.84
7,10,1,horizontal,horizontal,null,null,null,2931.495,null,null,null,null,null,above,IBstimulus_absent,null,null,7512.645
7,10,2,vertical,vertical,null,null,null,1835.48,null,null,null,null,null,below,IBstimulus_absent,null,null,5421.26
7,10,3,horizontal,horizontal,yes,blue,reportColor,3937.995,3169.255,4414.175,4608.685,4740.61,4581.48,below,IBstimulus_present,blue,right,28678.785
7,11,0,horizontal,horizontal,null,null,null,4521.83,null,null,null,null,null,above,IBstimulus_absent,null,null,10527.635
7,11,1,horizontal,horizontal,null,null,null,14328.93,null,null,null,null,null,above,IBstimulus_absent,null,null,20017.92
7,11,2,vertical,vertical,null,null,null,2977.825,null,null,null,null,null,above,IBstimulus_absent,null,null,6562.405
7,11,3,horizontal,horizontal,no,blue,reportColor,2520.785,5564.675,10695.025,6090,5517.255,5455.08,above,IBstimulus_absent,null,null,40003.685
7,12,0,vertical,vertical,null,null,null,2808.94,null,null,null,null,null,above,IBstimulus_absent,null,null,8248.415
7,12,1,horizontal,horizontal,null,null,null,1927.26,null,null,null,null,null,below,IBstimulus_absent,null,null,11531.95
7,12,2,horizontal,horizontal,null,null,null,1356.41,null,null,null,null,null,above,IBstimulus_absent,null,null,4178.93
7,12,3,horizontal,horizontal,yes,blue,reportColor,1604.895,2502.665,2266.61,4721.28,3056.215,3172.99,above,IBstimulus_present,blue,right,20591.305
7,13,0,vertical,horizontal,null,null,null,4030.565,null,null,null,null,null,above,IBstimulus_absent,null,null,9646.615
7,13,1,horizontal,horizontal,null,null,null,1622.215,null,null,null,null,null,below,IBstimulus_absent,null,null,5115.12
7,13,2,vertical,vertical,null,null,null,1683.81,null,null,null,null,null,below,IBstimulus_absent,null,null,4934.34
7,13,3,horizontal,horizontal,no,blue,reportColor,1658.64,3576.49,7176.235,3274.77,2821.175,3488.265,above,IBstimulus_absent,null,null,24828.015
7,14,0,vertical,vertical,null,null,null,3488.615,null,null,null,null,null,above,IBstimulus_absent,null,null,10032.65
7,14,1,vertical,vertical,null,null,null,1974.06,null,null,null,null,null,below,IBstimulus_absent,null,null,8400.86
7,14,2,vertical,vertical,null,null,null,1833.42,null,null,null,null,null,above,IBstimulus_absent,null,null,9939.86
7,14,3,vertical,vertical,yes,blue,reportColor,2684.15,2920.83,2045.34,3147.69,3371.095,3765,below,IBstimulus_present,blue,right,21499.23
7,15,0,vertical,vertical,null,null,null,1794,null,null,null,null,null,above,IBstimulus_absent,null,null,9884
7,15,1,horizontal,horizontal,null,null,null,3317,null,null,null,null,null,below,IBstimulus_absent,null,null,9471
7,15,2,horizontal,horizontal,null,null,null,2152,null,null,null,null,null,below,IBstimulus_absent,null,null,5201
7,15,3,vertical,vertical,yes,blue,reportColor,2401,4244,2814,5479,4349,4364,above,IBstimulus_present,blue,right,26815
7,16,0,horizontal,vertical,null,null,null,2816.87,null,null,null,null,null,below,IBstimulus_absent,null,null,34408.55
7,16,1,vertical,horizontal,null,null,null,4059.435,null,null,null,null,null,below,IBstimulus_absent,null,null,10572.855
7,16,2,vertical,horizontal,null,null,null,1948.87,null,null,null,null,null,above,IBstimulus_absent,null,null,6286.575
7,16,3,vertical,horizontal,no,blue,reportColor,1667.205,7223.445,8335.285,4999.005,9240.5,4302.835,below,IBstimulus_absent,null,null,39479.395
7,17,0,vertical,vertical,null,null,null,1862.79,null,null,null,null,null,above,IBstimulus_absent,null,null,6885.53
7,17,1,horizontal,horizontal,null,null,null,1528.235,null,null,null,null,null,below,IBstimulus_absent,null,null,4907.255
7,17,2,horizontal,horizontal,null,null,null,3865.685,null,null,null,null,null,below,IBstimulus_absent,null,null,8760.425
7,17,3,horizontal,horizontal,no,blue,reportColor,2115.95,6227.81,7959.77,6584.68,4440.84,4302.815,below,IBstimulus_absent,null,null,41071.065
7,18,0,horizontal,vertical,null,null,null,4313,null,null,null,null,null,below,IBstimulus_absent,null,null,10848
7,18,1,horizontal,horizontal,null,null,null,2045,null,null,null,null,null,below,IBstimulus_absent,null,null,6271
7,18,2,vertical,vertical,null,null,null,2722,null,null,null,null,null,above,IBstimulus_absent,null,null,7263
7,18,3,vertical,vertical,yes,blue,reportColor,3876,3030,2274,3969,3121,4413,below,IBstimulus_present,blue,right,24655
7,19,0,horizontal,horizontal,null,null,null,5410.205,null,null,null,null,null,above,IBstimulus_absent,null,null,27769.735
7,19,1,horizontal,horizontal,null,null,null,1389.895,null,null,null,null,null,above,IBstimulus_absent,null,null,8485.1
7,19,2,vertical,vertical,null,null,null,1035.11,null,null,null,null,null,above,IBstimulus_absent,null,null,7382.65
7,19,3,vertical,vertical,yes,red,reportColor,4174.08,4357.38,6200.26,21161.815,4966.645,9771.38,below,IBstimulus_present,red,right,54667.47
7,20,0,vertical,vertical,null,null,null,2891,null,null,null,null,null,below,IBstimulus_absent,null,null,15850
7,20,1,horizontal,horizontal,null,null,null,1355,null,null,null,null,null,below,IBstimulus_absent,null,null,4654
7,20,2,vertical,vertical,null,null,null,10264,null,null,null,null,null,above,IBstimulus_absent,null,null,13656
7,20,3,horizontal,horizontal,no,blue,reportColor,1702,4119,3729,4321,3607,3959,above,IBstimulus_present,blue,left,25136
7,21,0,horizontal,horizontal,null,null,null,1938,null,null,null,null,null,above,IBstimulus_absent,null,null,6733
7,21,1,horizontal,horizontal,null,null,null,1171,null,null,null,null,null,above,IBstimulus_absent,null,null,4665
7,21,2,vertical,vertical,null,null,null,1087,null,null,null,null,null,below,IBstimulus_absent,null,null,4217
7,21,3,horizontal,horizontal,yes,red,reportColor,4850,2172,3059,2498,2564,14044,below,IBstimulus_present,red,left,32369
7,22,0,horizontal,horizontal,null,null,null,1886.8,null,null,null,null,null,above,IBstimulus_absent,null,null,10710.23
7,22,1,vertical,vertical,null,null,null,1726.14,null,null,null,null,null,below,IBstimulus_absent,null,null,8020.825
7,22,2,horizontal,horizontal,null,null,null,1398.265,null,null,null,null,null,below,IBstimulus_absent,null,null,5870.725
7,22,3,vertical,vertical,no,red,reportColor,1682.485,3839.78,9767.445,7367.73,3455.735,5807.52,below,IBstimulus_absent,null,null,40999.31
7,23,0,vertical,vertical,null,null,null,3332.385,null,null,null,null,null,above,IBstimulus_absent,null,null,8185.185
7,23,1,horizontal,horizontal,null,null,null,1636.06,null,null,null,null,null,above,IBstimulus_absent,null,null,5858.635
7,23,2,horizontal,horizontal,null,null,null,1885.655,null,null,null,null,null,above,IBstimulus_absent,null,null,8075.885
7,23,3,horizontal,horizontal,yes,blue,reportColor,1068.385,4265.185,1193.27,3152.945,1989.29,2484.385,below,IBstimulus_present,blue,right,17126.24
7,24,0,vertical,vertical,null,null,null,2008.715,null,null,null,null,null,below,IBstimulus_absent,null,null,8261.465
7,24,1,vertical,vertical,null,null,null,1826.235,null,null,null,null,null,below,IBstimulus_absent,null,null,6505.105
7,24,2,horizontal,horizontal,null,null,null,2135.51,null,null,null,null,null,below,IBstimulus_absent,null,null,5905.94
7,24,3,vertical,vertical,yes,blue,reportColor,1679.71,4429.765,5083.55,4067.4,3860.83,3897.255,above,IBstimulus_absent,null,null,26211.265
7,25,0,horizontal,horizontal,null,null,null,12404.84,null,null,null,null,null,below,IBstimulus_absent,null,null,18851.235
7,25,1,horizontal,horizontal,null,null,null,2451.835,null,null,null,null,null,below,IBstimulus_absent,null,null,14265.27
7,25,2,horizontal,horizontal,null,null,null,1934.75,null,null,null,null,null,below,IBstimulus_absent,null,null,6398.695
7,25,3,horizontal,horizontal,yes,red,reportColor,4102.145,5744.455,4574.515,6382.735,4613.97,4708.16,above,IBstimulus_present,red,left,33465.855
7,26,0,vertical,vertical,null,null,null,3281.655,null,null,null,null,null,above,IBstimulus_absent,null,null,8929.005
7,26,1,horizontal,horizontal,null,null,null,1985.625,null,null,null,null,null,below,IBstimulus_absent,null,null,5699.97
7,26,2,horizontal,horizontal,null,null,null,1472.98,null,null,null,null,null,below,IBstimulus_absent,null,null,5054.345
7,26,3,vertical,vertical,no,blue,reportColor,1625.25,4095.4,5752.14,5655.44,3663.055,3943.495,above,IBstimulus_absent,null,null,27674.74
7,27,0,vertical,vertical,null,null,null,2008.715,null,null,null,null,null,below,IBstimulus_absent,null,null,8261.465
7,27,1,vertical,vertical,null,null,null,1826.235,null,null,null,null,null,below,IBstimulus_absent,null,null,6505.105
7,27,2,horizontal,horizontal,null,null,null,2135.51,null,null,null,null,null,below,IBstimulus_absent,null,null,5905.94
7,27,3,vertical,vertical,yes,blue,reportColor,1679.71,4429.765,5083.55,4067.4,3860.83,3897.255,above,IBstimulus_absent,null,null,26211.265
7,28,0,vertical,horizontal,null,null,null,6504.845,null,null,null,null,null,above,IBstimulus_absent,null,null,12173.845
7,28,1,horizontal,horizontal,null,null,null,4943.93,null,null,null,null,null,below,IBstimulus_absent,null,null,9187.39
7,28,2,vertical,vertical,null,null,null,3680.7,null,null,null,null,null,above,IBstimulus_absent,null,null,8852.96
7,28,3,horizontal,horizontal,yes,red,reportColor,3070.93,5222.38,5899.375,9795.81,4157.875,6743.68,above,IBstimulus_present,red,right,39602.095
7,29,0,horizontal,horizontal,null,null,null,10015.04,null,null,null,null,null,above,IBstimulus_absent,null,null,18676.07
7,29,1,vertical,vertical,null,null,null,3597.06,null,null,null,null,null,above,IBstimulus_absent,null,null,11507.745
7,29,2,horizontal,horizontal,null,null,null,3783.82,null,null,null,null,null,above,IBstimulus_absent,null,null,8826.03
7,29,3,vertical,vertical,no,blue,reportColor,3522.075,8033.575,8141.795,6697.82,5353.325,7205.825,below,IBstimulus_absent,null,null,44513.13
7,30,0,vertical,vertical,null,null,null,2898.15,null,null,null,null,null,below,IBstimulus_absent,null,null,6969.87
7,30,1,horizontal,horizontal,null,null,null,1020.675,null,null,null,null,null,above,IBstimulus_absent,null,null,4883.145
7,30,2,horizontal,horizontal,null,null,null,1923.92,null,null,null,null,null,above,IBstimulus_absent,null,null,5116.955
7,30,3,vertical,vertical,no,blue,reportColor,1032.97,3379.85,4169.54,5273.76,2697.6,3170.885,below,IBstimulus_present,blue,left,22604.57
7,31,0,vertical,vertical,null,null,null,4384,null,null,null,null,null,below,IBstimulus_absent,null,null,16890
7,31,1,vertical,vertical,null,null,null,2535,null,null,null,null,null,above,IBstimulus_absent,null,null,13803
7,31,2,vertical,vertical,null,null,null,3070,null,null,null,null,null,below,IBstimulus_absent,null,null,7302
7,31,3,horizontal,horizontal,yes,red,reportColor,2395,4848,7662,5883,3274,7300,below,IBstimulus_present,red,left,35326
7,32,0,horizontal,horizontal,null,null,null,3128.695,null,null,null,null,null,below,IBstimulus_absent,null,null,12653.415
7,32,1,horizontal,horizontal,null,null,null,2135.28,null,null,null,null,null,above,IBstimulus_absent,null,null,11323.35
7,32,2,vertical,vertical,null,null,null,2623.945,null,null,null,null,null,above,IBstimulus_absent,null,null,5700.455
7,32,3,horizontal,horizontal,no,blue,reportColor,1927.43,4811.72,8134.73,6733.755,3831.88,4799.275,above,IBstimulus_present,red,right,33384.98
7,33,0,horizontal,vertical,null,null,null,10893,null,null,null,null,null,below,IBstimulus_absent,null,null,20787
7,33,1,vertical,horizontal,null,null,null,9878,null,null,null,null,null,above,IBstimulus_absent,null,null,18743
7,33,2,horizontal,horizontal,null,null,null,3239,null,null,null,null,null,above,IBstimulus_absent,null,null,10688
7,33,3,vertical,vertical,yes,blue,reportColor,4050,9389,14142,10240,6236,7140,above,IBstimulus_present,blue,right,56730
7,34,0,horizontal,horizontal,null,null,null,3728.82,null,null,null,null,null,below,IBstimulus_absent,null,null,9050.84
7,34,1,vertical,vertical,null,null,null,1964.985,null,null,null,null,null,below,IBstimulus_absent,null,null,10166.885
7,34,2,vertical,vertical,null,null,null,2085.255,null,null,null,null,null,below,IBstimulus_absent,null,null,5472.32
7,34,3,vertical,vertical,yes,red,reportColor,2960.65,4335.515,3986.985,8899.58,3057.98,4735.46,below,IBstimulus_present,red,left,30936.775
7,35,0,vertical,vertical,null,null,null,4512.19,null,null,null,null,null,below,IBstimulus_absent,null,null,17252.265
7,35,1,horizontal,horizontal,null,null,null,3445.235,null,null,null,null,null,below,IBstimulus_absent,null,null,8988.26
7,35,2,vertical,vertical,null,null,null,6126.805,null,null,null,null,null,above,IBstimulus_absent,null,null,9589.415
7,35,3,vertical,vertical,yes,blue,reportColor,3091.665,12836.375,13311.05,9470.17,4337.945,6625.41,below,IBstimulus_present,blue,left,55733.86
7,36,0,horizontal,horizontal,null,null,null,9042.405,null,null,null,null,null,below,IBstimulus_absent,null,null,14426.68
7,36,1,horizontal,horizontal,null,null,null,22499.52,null,null,null,null,null,below,IBstimulus_absent,null,null,29383.71
7,36,2,horizontal,horizontal,null,null,null,4035.4,null,null,null,null,null,above,IBstimulus_absent,null,null,8331.05
7,36,3,vertical,vertical,no,blue,reportColor,2695.56,4187.865,7791.675,4530.725,4024.27,17318.87,below,IBstimulus_absent,null,null,44561.41
7,37,0,horizontal,vertical,null,null,null,4350.135,null,null,null,null,null,above,IBstimulus_absent,null,null,29330.92
7,37,1,horizontal,horizontal,null,null,null,5422.835,null,null,null,null,null,above,IBstimulus_absent,null,null,13397.96
7,37,2,horizontal,horizontal,null,null,null,4279.545,null,null,null,null,null,below,IBstimulus_absent,null,null,12520.35
7,37,3,horizontal,horizontal,no,blue,reportColor,3644.65,4857.285,15163.495,8580.87,4429.07,9273.57,below,IBstimulus_present,red,right,49913.805
7,38,0,horizontal,horizontal,null,null,null,3170.525,null,null,null,null,null,above,IBstimulus_absent,null,null,8954.58
7,38,1,horizontal,horizontal,null,null,null,2139.8,null,null,null,null,null,below,IBstimulus_absent,null,null,6596.76
7,38,2,vertical,vertical,null,null,null,1735.74,null,null,null,null,null,below,IBstimulus_absent,null,null,6510.595
7,38,3,horizontal,horizontal,yes,blue,reportColor,7428.92,5111.775,1839.745,3767.39,2239.595,4807.475,below,IBstimulus_present,blue,left,28990.04
7,39,0,vertical,vertical,null,null,null,7785,null,null,null,null,null,below,IBstimulus_absent,null,null,19151
7,39,1,vertical,vertical,null,null,null,1985,null,null,null,null,null,below,IBstimulus_absent,null,null,5947
7,39,2,horizontal,horizontal,null,null,null,1966,null,null,null,null,null,below,IBstimulus_absent,null,null,5048
7,39,3,vertical,horizontal,yes,blue,reportColor,4259,2856,1904,3697,3418,3978,above,IBstimulus_present,blue,right,24638
7,40,0,vertical,vertical,null,null,null,5307.27,null,null,null,null,null,below,IBstimulus_absent,null,null,16002.185
7,40,1,horizontal,horizontal,null,null,null,2233.035,null,null,null,null,null,above,IBstimulus_absent,null,null,9979.99
7,40,2,vertical,vertical,null,null,null,2227.345,null,null,null,null,null,above,IBstimulus_absent,null,null,5504.955
7,40,3,vertical,vertical,no,blue,reportColor,3595.715,7324.62,8203.25,10578.04,5129.915,6655.345,above,IBstimulus_present,red,right,45065.775
7,41,0,horizontal,vertical,null,null,null,4350.135,null,null,null,null,null,above,IBstimulus_absent,null,null,29330.92
7,41,1,horizontal,horizontal,null,null,null,5422.835,null,null,null,null,null,above,IBstimulus_absent,null,null,13397.96
7,41,2,horizontal,horizontal,null,null,null,4279.545,null,null,null,null,null,below,IBstimulus_absent,null,null,12520.35
7,41,3,horizontal,horizontal,no,blue,reportColor,3644.65,4857.285,15163.495,8580.87,4429.07,9273.57,below,IBstimulus_present,red,right,49913.805
7,42,0,horizontal,horizontal,null,null,null,3518.52,null,null,null,null,null,below,IBstimulus_absent,null,null,9875.035
7,42,1,horizontal,horizontal,null,null,null,2358.745,null,null,null,null,null,below,IBstimulus_absent,null,null,5764.17
7,42,2,horizontal,horizontal,null,null,null,3024.325,null,null,null,null,null,above,IBstimulus_absent,null,null,6078.915
7,42,3,vertical,vertical,yes,blue,reportColor,2421.45,3830.255,4916.07,4315.09,3365.58,4316.05,below,IBstimulus_present,blue,right,26403.73
7,43,0,vertical,vertical,null,null,null,5481.05,null,null,null,null,null,above,IBstimulus_absent,null,null,11100.345
7,43,1,vertical,vertical,null,null,null,4362.37,null,null,null,null,null,below,IBstimulus_absent,null,null,8366.355
7,43,2,vertical,vertical,null,null,null,2914.1,null,null,null,null,null,below,IBstimulus_absent,null,null,6542.93
7,43,3,horizontal,horizontal,yes,red,reportColor,2717.19,6321.39,9388.07,4962.535,3059.39,4180.92,above,IBstimulus_absent,null,null,34674.885
7,44,0,horizontal,horizontal,null,null,null,5184.135,null,null,null,null,null,above,IBstimulus_absent,null,null,13915.78
7,44,1,horizontal,horizontal,null,null,null,3334.96,null,null,null,null,null,above,IBstimulus_absent,null,null,8958.325
7,44,2,vertical,vertical,null,null,null,4716.51,null,null,null,null,null,above,IBstimulus_absent,null,null,7968.835
7,44,3,horizontal,horizontal,yes,blue,reportColor,4021.765,8056.77,8361.2,8109.68,6522.4,9154.56,above,IBstimulus_present,blue,left,48518.66
7,45,0,vertical,vertical,null,null,null,2932.605,null,null,null,null,null,below,IBstimulus_absent,null,null,8423.61
7,45,1,horizontal,horizontal,null,null,null,3518.04,null,null,null,null,null,above,IBstimulus_absent,null,null,7180.325
7,45,2,horizontal,horizontal,null,null,null,1533.895,null,null,null,null,null,below,IBstimulus_absent,null,null,4679.435
7,45,3,vertical,vertical,yes,red,reportColor,1361.65,4983.715,7719.645,3991.53,3319.76,3279.515,above,IBstimulus_present,blue,right,28403.57
7,46,0,vertical,horizontal,null,null,null,4612,null,null,null,null,null,below,IBstimulus_absent,null,null,10865
7,46,1,vertical,vertical,null,null,null,2299,null,null,null,null,null,below,IBstimulus_absent,null,null,12601
7,46,2,vertical,vertical,null,null,null,2061,null,null,null,null,null,below,IBstimulus_absent,null,null,5696
7,46,3,vertical,vertical,no,blue,reportColor,4094,6405,18420,13257,4682,6928,below,IBstimulus_absent,null,null,57820
7,47,0,vertical,vertical,null,null,null,4176.815,null,null,null,null,null,below,IBstimulus_absent,null,null,10314.19
7,47,1,horizontal,horizontal,null,null,null,2095.19,null,null,null,null,null,above,IBstimulus_absent,null,null,6924.295
7,47,2,horizontal,horizontal,null,null,null,2432.59,null,null,null,null,null,below,IBstimulus_absent,null,null,6879.38
7,47,3,horizontal,horizontal,no,red,reportColor,2012.905,4749.48,5494.315,4433.56,4026.185,6077.575,above,IBstimulus_absent,null,null,30572.445
7,48,0,horizontal,horizontal,null,null,null,5184.135,null,null,null,null,null,above,IBstimulus_absent,null,null,13915.78
7,48,1,horizontal,horizontal,null,null,null,3334.96,null,null,null,null,null,above,IBstimulus_absent,null,null,8958.325
7,48,2,vertical,vertical,null,null,null,4716.51,null,null,null,null,null,above,IBstimulus_absent,null,null,7968.835
7,48,3,horizontal,horizontal,yes,blue,reportColor,4021.765,8056.77,8361.2,8109.68,6522.4,9154.56,above,IBstimulus_present,blue,left,48518.66
7,49,0,vertical,vertical,null,null,null,2270.925,null,null,null,null,null,above,IBstimulus_absent,null,null,8656.52
7,49,1,horizontal,horizontal,null,null,null,1540.15,null,null,null,null,null,below,IBstimulus_absent,null,null,8660.415
7,49,2,vertical,vertical,null,null,null,1473.33,null,null,null,null,null,above,IBstimulus_absent,null,null,5070.29
7,49,3,vertical,vertical,no,blue,reportColor,1645.81,4303.635,5095.675,6143.225,2704.085,5983.43,above,IBstimulus_present,blue,left,29203.275
7,50,0,vertical,vertical,null,null,null,2898.15,null,null,null,null,null,below,IBstimulus_absent,null,null,6969.87
7,50,1,horizontal,horizontal,null,null,null,1020.675,null,null,null,null,null,above,IBstimulus_absent,null,null,4883.145
7,50,2,horizontal,horizontal,null,null,null,1923.92,null,null,null,null,null,above,IBstimulus_absent,null,null,5116.955
7,50,3,vertical,vertical,no,blue,reportColor,1032.97,3379.85,4169.54,5273.76,2697.6,3170.885,below,IBstimulus_present,blue,left,22604.57
7,51,0,horizontal,horizontal,null,null,null,5279.19,null,null,null,null,null,below,IBstimulus_absent,null,null,13783.82
7,51,1,vertical,vertical,null,null,null,3051.61,null,null,null,null,null,below,IBstimulus_absent,null,null,9250.21
7,51,2,vertical,vertical,null,null,null,2342.03,null,null,null,null,null,below,IBstimulus_absent,null,null,6428.890001
7,51,3,horizontal,horizontal,no,blue,reportColor,2397.709999,6667.235,9205.469999,9077.484999,5781.850001,6783.7,above,IBstimulus_present,blue,right,43768.83
7,52,0,vertical,horizontal,null,null,null,6619.135,null,null,null,null,null,above,IBstimulus_absent,null,null,11778.165
7,52,1,vertical,vertical,null,null,null,3098.3,null,null,null,null,null,below,IBstimulus_absent,null,null,6720.72
7,52,2,horizontal,horizontal,null,null,null,1153.02,null,null,null,null,null,above,IBstimulus_absent,null,null,3906.785
7,52,3,horizontal,horizontal,no,red,reportColor,1081.93,3549.29,6728.245,3570.46,2948.155,4741.825,above,IBstimulus_absent,null,null,25317.205
7,53,0,vertical,vertical,null,null,null,4730,null,null,null,null,null,above,IBstimulus_absent,null,null,13791
7,53,1,horizontal,horizontal,null,null,null,2904,null,null,null,null,null,below,IBstimulus_absent,null,null,6529
7,53,2,horizontal,horizontal,null,null,null,1744,null,null,null,null,null,above,IBstimulus_absent,null,null,5016
7,53,3,horizontal,horizontal,no,blue,reportColor,2175,13966,5947,10836,3652,3993,below,IBstimulus_present,blue,right,45438
7,54,0,vertical,horizontal,null,null,null,2884.915,null,null,null,null,null,above,IBstimulus_absent,null,null,8511.84
7,54,1,horizontal,horizontal,null,null,null,5011.125,null,null,null,null,null,below,IBstimulus_absent,null,null,15023.76
7,54,2,horizontal,horizontal,null,null,null,1543.775,null,null,null,null,null,above,IBstimulus_absent,null,null,5798.815
7,54,3,vertical,vertical,no,blue,reportColor,1421.1,4668.315,8808.975,8676.765,4182.205,4566.425,below,IBstimulus_absent,null,null,35555.395
7,55,0,vertical,vertical,null,null,null,3346.465,null,null,null,null,null,below,IBstimulus_absent,null,null,8574.56
7,55,1,horizontal,horizontal,null,null,null,2592.78,null,null,null,null,null,below,IBstimulus_absent,null,null,7236.59
7,55,2,horizontal,vertical,null,null,null,4642.495,null,null,null,null,null,above,IBstimulus_absent,null,null,8790.19
7,55,3,horizontal,vertical,yes,red,reportColor,5719.255,3380.035,1780.94,11795.99,3097.385,3221.66,above,IBstimulus_present,red,right,33126.245
7,56,0,horizontal,horizontal,null,null,null,4204.085,null,null,null,null,null,above,IBstimulus_absent,null,null,11807.93
7,56,1,horizontal,horizontal,null,null,null,2627.005,null,null,null,null,null,below,IBstimulus_absent,null,null,9012.48
7,56,2,horizontal,horizontal,null,null,null,6257.395,null,null,null,null,null,above,IBstimulus_absent,null,null,10428.985
7,56,3,horizontal,horizontal,no,blue,reportColor,2488.65,8478.66,11872.72,6920.295,3272.62,6024.915,below,IBstimulus_absent,null,null,44724.255
7,57,0,horizontal,horizontal,null,null,null,2167.22,null,null,null,null,null,below,IBstimulus_absent,null,null,6747.44
7,57,1,horizontal,horizontal,null,null,null,998.38,null,null,null,null,null,above,IBstimulus_absent,null,null,7205.245
7,57,2,horizontal,horizontal,null,null,null,1799.28,null,null,null,null,null,above,IBstimulus_absent,null,null,5690.625
7,57,3,horizontal,horizontal,yes,red,reportColor,3981.705,3367.54,5992.395,2984.66,3164.83,3516.25,below,IBstimulus_present,blue,right,27669.455
7,58,0,vertical,horizontal,null,null,null,3498.6,null,null,null,null,null,above,IBstimulus_absent,null,null,9367.585
7,58,1,horizontal,horizontal,null,null,null,2175.535,null,null,null,null,null,above,IBstimulus_absent,null,null,10386.535
7,58,2,horizontal,horizontal,null,null,null,1814.915,null,null,null,null,null,below,IBstimulus_absent,null,null,5803.445
7,58,3,vertical,vertical,yes,red,reportColor,1504.88,5999.28,4379.79,4142.32,3802.31,4942.48,below,IBstimulus_present,red,left,28546.365
7,59,0,vertical,vertical,null,null,null,3438.875,null,null,null,null,null,above,IBstimulus_absent,null,null,8925.605
7,59,1,vertical,vertical,null,null,null,1769.27,null,null,null,null,null,below,IBstimulus_absent,null,null,5510.395
7,59,2,horizontal,horizontal,null,null,null,1445.37,null,null,null,null,null,above,IBstimulus_absent,null,null,4425.345
7,59,3,horizontal,horizontal,yes,red,reportColor,1397.19,2781.815,2321.605,6151.86,3222.805,3921.735,below,IBstimulus_present,red,left,22455.27
7,60,0,horizontal,vertical,null,null,null,6984,null,null,null,null,null,above,IBstimulus_absent,null,null,12613
7,60,1,horizontal,horizontal,null,null,null,3216,null,null,null,null,null,above,IBstimulus_absent,null,null,7877
7,60,2,vertical,vertical,null,null,null,2136,null,null,null,null,null,above,IBstimulus_absent,null,null,6917
7,60,3,horizontal,horizontal,no,blue,reportColor,2971,6921,8763,5223,4336,5166,below,IBstimulus_present,red,right,39009
7,61,0,horizontal,horizontal,null,null,null,4752.985,null,null,null,null,null,below,IBstimulus_absent,null,null,12873.44
7,61,1,horizontal,horizontal,null,null,null,4908.73,null,null,null,null,null,below,IBstimulus_absent,null,null,11068.69
7,61,2,vertical,vertical,null,null,null,3969.36,null,null,null,null,null,above,IBstimulus_absent,null,null,8160
7,61,3,vertical,vertical,yes,blue,reportColor,3678.545,6480.08,7390.87,4135.88,4516.055,5847.325,above,IBstimulus_present,blue,left,35582.885
7,62,0,vertical,vertical,null,null,null,2528.31,null,null,null,null,null,below,IBstimulus_absent,null,null,7340.635
7,62,1,horizontal,horizontal,null,null,null,1660.39,null,null,null,null,null,below,IBstimulus_absent,null,null,5467.33
7,62,2,horizontal,horizontal,null,null,null,2076.72,null,null,null,null,null,above,IBstimulus_absent,null,null,5662.325
7,62,3,vertical,vertical,no,blue,reportColor,1621.975,3187.75,4598.88,3293.135,2668.575,4015.42,below,IBstimulus_absent,null,null,22520.47
7,63,0,vertical,vertical,null,null,null,3120.19,null,null,null,null,null,above,IBstimulus_absent,null,null,7356.37
7,63,1,vertical,vertical,null,null,null,1918.29,null,null,null,null,null,above,IBstimulus_absent,null,null,6862.33
7,63,2,vertical,vertical,null,null,null,1430.005,null,null,null,null,null,above,IBstimulus_absent,null,null,4244.85
7,63,3,horizontal,horizontal,yes,blue,reportColor,2819.19,4814.795,1919.155,6274.02,3584.35,4979.495,above,IBstimulus_present,blue,left,27065.495
7,64,0,vertical,vertical,null,null,null,3760.38,null,null,null,null,null,below,IBstimulus_absent,null,null,9564.925
7,64,1,vertical,vertical,null,null,null,2588.81,null,null,null,null,null,below,IBstimulus_absent,null,null,10516.145
7,64,2,horizontal,horizontal,null,null,null,1978.545,null,null,null,null,null,above,IBstimulus_absent,null,null,6172.195
7,64,3,vertical,vertical,yes,red,reportColor,2418.04,3230.31,4476.25,5124.745,4253.36,11267.955,above,IBstimulus_present,red,left,34907.245
7,65,0,horizontal,horizontal,null,null,null,2347.65,null,null,null,null,null,above,IBstimulus_absent,null,null,6931.785
7,65,1,vertical,vertical,null,null,null,1547.755,null,null,null,null,null,below,IBstimulus_absent,null,null,4969.42
7,65,2,vertical,vertical,null,null,null,1773.895,null,null,null,null,null,above,IBstimulus_absent,null,null,7209.385
7,65,3,vertical,vertical,no,blue,reportColor,1613.56,5749.09,6157.49,4512.975,3615.885,3832.63,above,IBstimulus_absent,null,null,28709.1
7,66,0,horizontal,horizontal,null,null,null,1826.545,null,null,null,null,null,below,IBstimulus_absent,null,null,6695.975
7,66,1,horizontal,horizontal,null,null,null,1149.525,null,null,null,null,null,above,IBstimulus_absent,null,null,4887.97
7,66,2,horizontal,horizontal,null,null,null,1729.75,null,null,null,null,null,above,IBstimulus_absent,null,null,4767.345
7,66,3,horizontal,vertical,no,blue,reportColor,1094.66,3984.49,6111.455,2577.34,2637.555,3135.18,below,IBstimulus_present,blue,right,22264.495
7,67,0,vertical,vertical,null,null,null,3812,null,null,null,null,null,below,IBstimulus_absent,null,null,14131
7,67,1,vertical,vertical,null,null,null,3422,null,null,null,null,null,above,IBstimulus_absent,null,null,14185
7,67,2,horizontal,horizontal,null,null,null,3132,null,null,null,null,null,above,IBstimulus_absent,null,null,6491
7,67,3,vertical,vertical,no,red,reportColor,2035,3968,7026,4626,3399,5833,above,IBstimulus_present,blue,right,30342
7,68,0,horizontal,horizontal,null,null,null,7965,null,null,null,null,null,below,IBstimulus_absent,null,null,14654
7,68,1,horizontal,vertical,null,null,null,2545,null,null,null,null,null,below,IBstimulus_absent,null,null,9154
7,68,2,vertical,vertical,null,null,null,2183,null,null,null,null,null,above,IBstimulus_absent,null,null,6321
7,68,3,horizontal,horizontal,no,red,reportColor,1903,5096,7361,4460,4773,5680,below,IBstimulus_present,red,right,32664
7,69,0,vertical,vertical,null,null,null,4454.44,null,null,null,null,null,below,IBstimulus_absent,null,null,12973.045
7,69,1,vertical,vertical,null,null,null,3045.6,null,null,null,null,null,above,IBstimulus_absent,null,null,9448.215
7,69,2,horizontal,horizontal,null,null,null,2304.365,null,null,null,null,null,below,IBstimulus_absent,null,null,8499.315
7,69,3,vertical,vertical,no,blue,reportColor,3140.455,6313.75,13982.06,7313.775,3367.49,5671.8,below,IBstimulus_absent,null,null,44591.865
7,70,0,horizontal,horizontal,null,null,null,4151.41,null,null,null,null,null,above,IBstimulus_absent,null,null,10133.115
7,70,1,vertical,vertical,null,null,null,2193.34,null,null,null,null,null,above,IBstimulus_absent,null,null,5645.445
7,70,2,vertical,vertical,null,null,null,3067.715,null,null,null,null,null,above,IBstimulus_absent,null,null,5935.73
7,70,3,horizontal,vertical,yes,red,reportColor,2741.66,3982.875,6111.535,4662.605,3135.135,7014.505,below,IBstimulus_present,blue,left,34676.19
7,71,0,horizontal,horizontal,null,null,null,4691.605,null,null,null,null,null,below,IBstimulus_absent,null,null,17521.58
7,71,1,vertical,vertical,null,null,null,3132.78,null,null,null,null,null,below,IBstimulus_absent,null,null,12905.77
7,71,2,horizontal,horizontal,null,null,null,2178.835,null,null,null,null,null,above,IBstimulus_absent,null,null,5511.26
7,71,3,horizontal,horizontal,yes,red,reportColor,4951.655,7908.27,15461.235,7025.925,5118.07,4955.355,above,IBstimulus_absent,null,null,48719.72
7,72,0,vertical,vertical,null,null,null,2022.575,null,null,null,null,null,below,IBstimulus_absent,null,null,9644.215
7,72,1,vertical,vertical,null,null,null,2044.545,null,null,null,null,null,below,IBstimulus_absent,null,null,5852.83
7,72,2,horizontal,horizontal,null,null,null,1933.015,null,null,null,null,null,below,IBstimulus_absent,null,null,5687.335
7,72,3,vertical,vertical,no,blue,reportColor,2529.34,5423.605,10198.23,4832,3623.91,5016.07,above,IBstimulus_absent,null,null,34780.835
7,73,0,horizontal,horizontal,null,null,null,3685.355,null,null,null,null,null,below,IBstimulus_absent,null,null,8563.29
7,73,1,vertical,vertical,null,null,null,4131.645,null,null,null,null,null,below,IBstimulus_absent,null,null,11093.235
7,73,2,horizontal,horizontal,null,null,null,3729.9,null,null,null,null,null,above,IBstimulus_absent,null,null,6998.05
7,73,3,vertical,vertical,no,blue,reportColor,3391.94,5821.985,11324.95,4788.215,3283.925,5238.245,above,IBstimulus_absent,null,null,37180.015
7,74,0,vertical,horizontal,null,null,null,5158.87,null,null,null,null,null,below,IBstimulus_absent,null,null,13672.865
7,74,1,horizontal,horizontal,null,null,null,1460.04,null,null,null,null,null,below,IBstimulus_absent,null,null,5900.955
7,74,2,vertical,horizontal,null,null,null,1392.88,null,null,null,null,null,above,IBstimulus_absent,null,null,5567.35
7,74,3,vertical,horizontal,yes,blue,reportColor,1235.785,4220.655,3516.305,2546.085,2497.3,3531.77,below,IBstimulus_present,blue,left,21330.42
7,75,0,vertical,vertical,null,null,null,4311.205,null,null,null,null,null,below,IBstimulus_absent,null,null,13172.335
7,75,1,vertical,vertical,null,null,null,1757.2,null,null,null,null,null,below,IBstimulus_absent,null,null,8326.165
7,75,2,vertical,vertical,null,null,null,3985.78,null,null,null,null,null,above,IBstimulus_absent,null,null,8154.75
7,75,3,horizontal,horizontal,no,blue,reportColor,1687.085,5857.34,10622.02,6028.385,4475.21,5374.525,above,IBstimulus_absent,null,null,37991.585
7,76,0,vertical,vertical,null,null,null,3488.145,null,null,null,null,null,below,IBstimulus_absent,null,null,9550.02
7,76,1,horizontal,horizontal,null,null,null,1139.995,null,null,null,null,null,below,IBstimulus_absent,null,null,4764.755
7,76,2,horizontal,horizontal,null,null,null,1248.37,null,null,null,null,null,above,IBstimulus_absent,null,null,4406.82
7,76,3,vertical,vertical,no,red,reportColor,1136.065,2863.465,5591.745,3815.595,2871.29,3144.21,above,IBstimulus_present,red,right,21997.435
7,77,0,horizontal,horizontal,null,null,null,4996.975,null,null,null,null,null,below,IBstimulus_absent,null,null,11492.955
7,77,1,vertical,vertical,null,null,null,3017.37,null,null,null,null,null,below,IBstimulus_absent,null,null,6902.455
7,77,2,vertical,vertical,null,null,null,3301.505,null,null,null,null,null,above,IBstimulus_absent,null,null,6866.935
7,77,3,horizontal,horizontal,yes,blue,reportColor,2611.595,4418.01,4825.47,5009.19,3679.955,5776.715,above,IBstimulus_present,blue,left,30488.33
7,78,0,horizontal,vertical,null,null,null,5931.81,null,null,null,null,null,below,IBstimulus_absent,null,null,14621.835
7,78,1,vertical,vertical,null,null,null,2104.165,null,null,null,null,null,above,IBstimulus_absent,null,null,6251.175
7,78,2,vertical,vertical,null,null,null,2990.58,null,null,null,null,null,below,IBstimulus_absent,null,null,6916.88
7,78,3,vertical,vertical,yes,blue,reportColor,2070.05,4601.305,6321.44,8348.56,5870.35,5497.825,below,IBstimulus_present,blue,right,36390.8
7,79,0,vertical,vertical,null,null,null,1824.675,null,null,null,null,null,below,IBstimulus_absent,null,null,9981.14
7,79,1,vertical,vertical,null,null,null,3439.8,null,null,null,null,null,above,IBstimulus_absent,null,null,7613.045
7,79,2,horizontal,horizontal,null,null,null,2642.7,null,null,null,null,null,below,IBstimulus_absent,null,null,7068.245
7,79,3,vertical,vertical,yes,blue,reportColor,4359.945,4206.4,4843.88,6515.56,3034.26,6720.78,above,IBstimulus_present,blue,right,34523.85
7,80,0,vertical,vertical,null,null,null,6891.54,null,null,null,null,null,above,IBstimulus_absent,null,null,16231.82
7,80,1,vertical,vertical,null,null,null,2836.535,null,null,null,null,null,above,IBstimulus_absent,null,null,9540.51
7,80,2,vertical,vertical,null,null,null,6231.705,null,null,null,null,null,below,IBstimulus_absent,null,null,11886.625
7,80,3,horizontal,horizontal,no,red,reportColor,2280.965,13295.645,14943.725,12439.475,5743.885,7735.835,above,IBstimulus_present,red,right,60492.455
7,81,0,horizontal,horizontal,null,null,null,2704.665,null,null,null,null,null,above,IBstimulus_absent,null,null,9593.24
7,81,1,vertical,vertical,null,null,null,2039.165,null,null,null,null,null,below,IBstimulus_absent,null,null,7164.36
7,81,2,vertical,vertical,null,null,null,1975.64,null,null,null,null,null,above,IBstimulus_absent,null,null,5834.835
7,81,3,vertical,vertical,no,red,reportColor,2499.905,4022.175,8234.735,17114.5,3726.36,6704.85,below,IBstimulus_absent,null,null,46072.525
7,82,0,vertical,horizontal,null,null,null,6405,null,null,null,null,null,below,IBstimulus_absent,null,null,14074
7,82,1,vertical,vertical,null,null,null,3372,null,null,null,null,null,below,IBstimulus_absent,null,null,7905
7,82,2,horizontal,horizontal,null,null,null,1578,null,null,null,null,null,below,IBstimulus_absent,null,null,5022
7,82,3,vertical,vertical,no,red,reportColor,1634,2517,7795,10716,3376,3693,below,IBstimulus_present,blue,right,32972
7,83,0,vertical,vertical,null,null,null,2457.26,null,null,null,null,null,below,IBstimulus_absent,null,null,8211.21
7,83,1,horizontal,horizontal,null,null,null,1280.29,null,null,null,null,null,above,IBstimulus_absent,null,null,5411.85
7,83,2,vertical,vertical,null,null,null,1162.925,null,null,null,null,null,above,IBstimulus_absent,null,null,4444.58
7,83,3,vertical,vertical,no,blue,reportColor,1200.59,3469.81,5616.205,5568.365,2913.74,1937.8,below,IBstimulus_absent,null,null,23668.935
7,84,0,horizontal,horizontal,null,null,null,2212,null,null,null,null,null,above,IBstimulus_absent,null,null,10471
7,84,1,vertical,vertical,null,null,null,2672,null,null,null,null,null,above,IBstimulus_absent,null,null,6174
7,84,2,vertical,vertical,null,null,null,2396,null,null,null,null,null,above,IBstimulus_absent,null,null,5139
7,84,3,horizontal,horizontal,yes,red,reportColor,1145,3191,1809,4963,2843,3952,above,IBstimulus_present,red,right,20670
7,85,0,vertical,horizontal,null,null,null,2782.485,null,null,null,null,null,below,IBstimulus_absent,null,null,10780.305
7,85,1,horizontal,horizontal,null,null,null,2599.065,null,null,null,null,null,below,IBstimulus_absent,null,null,6600.89
7,85,2,vertical,vertical,null,null,null,1644.58,null,null,null,null,null,above,IBstimulus_absent,null,null,4530.38
7,85,3,horizontal,horizontal,no,blue,reportColor,1274.225,3695.53,6794.06,3770.68,3374.655,3259.4,above,IBstimulus_absent,null,null,24955.275
7,86,0,horizontal,horizontal,null,null,null,1886.8,null,null,null,null,null,above,IBstimulus_absent,null,null,10710.23
7,86,1,vertical,vertical,null,null,null,1726.14,null,null,null,null,null,below,IBstimulus_absent,null,null,8020.825
7,86,2,horizontal,horizontal,null,null,null,1398.265,null,null,null,null,null,below,IBstimulus_absent,null,null,5870.725
7,86,3,vertical,vertical,no,red,reportColor,1682.485,3839.78,9767.445,7367.73,3455.735,5807.52,below,IBstimulus_absent,null,null,40999.31
7,87,0,vertical,vertical,null,null,null,4227.255,null,null,null,null,null,above,IBstimulus_absent,null,null,11261.645
7,87,1,vertical,vertical,null,null,null,1724.055,null,null,null,null,null,above,IBstimulus_absent,null,null,6684.83
7,87,2,vertical,vertical,null,null,null,1502.5,null,null,null,null,null,below,IBstimulus_absent,null,null,5198.475
7,87,3,horizontal,horizontal,no,red,reportColor,1638.645,5415.91,8751.455,6967.195,2903.72,3623.55,below,IBstimulus_absent,null,null,32487.525
7,88,0,horizontal,horizontal,null,null,null,3518.01,null,null,null,null,null,above,IBstimulus_absent,null,null,9145.15
7,88,1,vertical,vertical,null,null,null,2166.57,null,null,null,null,null,above,IBstimulus_absent,null,null,5779.62
7,88,2,horizontal,horizontal,null,null,null,1301.14,null,null,null,null,null,above,IBstimulus_absent,null,null,4366.865
7,88,3,vertical,vertical,no,red,reportColor,1301.745,4791.365,8543.71,4495.46,3839.74,5791.53,above,IBstimulus_absent,null,null,31443.435
7,89,0,horizontal,horizontal,null,null,null,3172.655,null,null,null,null,null,below,IBstimulus_absent,null,null,10224.29
7,89,1,horizontal,horizontal,null,null,null,2975.095,null,null,null,null,null,above,IBstimulus_absent,null,null,11265.04
7,89,2,horizontal,horizontal,null,null,null,3446.21,null,null,null,null,null,below,IBstimulus_absent,null,null,7819.4
7,89,3,vertical,vertical,yes,blue,reportColor,2438.095,7814.85,10147.605,5629.605,3254.39,3906.58,below,IBstimulus_absent,null,null,36784.535
7,90,0,vertical,vertical,null,null,null,5120.04,null,null,null,null,null,below,IBstimulus_absent,null,null,9880.585
7,90,1,horizontal,horizontal,null,null,null,1897.54,null,null,null,null,null,below,IBstimulus_absent,null,null,5973.935
7,90,2,vertical,vertical,null,null,null,2207.235,null,null,null,null,null,above,IBstimulus_absent,null,null,10745.625
7,90,3,vertical,vertical,no,blue,reportColor,1353.105,4724.43,5298.215,4131.685,2413.345,3828.5,below,IBstimulus_absent,null,null,25460.36
7,91,0,horizontal,null,null,null,null,null,null,null,null,null,null,below,IBstimulus_absent,null,null,
7,91,1,vertical,null,null,null,null,null,null,null,null,null,null,below,IBstimulus_absent,null,null,
7,91,2,horizontal,null,null,null,null,null,null,null,null,null,null,below,IBstimulus_absent,null,null,
7,91,3,vertical,null,null,null,reportColor,null,null,null,null,null,null,above,IBstimulus_present,red,left,
7,92,0,vertical,vertical,null,null,null,2555.095,null,null,null,null,null,above,IBstimulus_absent,null,null,9657.24
7,92,1,vertical,vertical,null,null,null,1230.21,null,null,null,null,null,above,IBstimulus_absent,null,null,7386.485
7,92,2,horizontal,horizontal,null,null,null,1250.22,null,null,null,null,null,below,IBstimulus_absent,null,null,5122.835
7,92,3,vertical,vertical,no,blue,reportColor,1074.845,2505.355,6957.435,6583.595,4046.215,3618.855,below,IBstimulus_absent,null,null,29264.435
7,93,0,vertical,vertical,null,null,null,3454.69,null,null,null,null,null,below,IBstimulus_absent,null,null,7833.33
7,93,1,vertical,vertical,null,null,null,1326.34,null,null,null,null,null,above,IBstimulus_absent,null,null,6443.14
7,93,2,vertical,vertical,null,null,null,1246.465,null,null,null,null,null,below,IBstimulus_absent,null,null,4935.21
7,93,3,horizontal,horizontal,yes,blue,reportColor,3774.125,3496.79,1737.2,4974.43,3472.71,3312.31,above,IBstimulus_present,blue,left,23898.025
7,94,0,horizontal,vertical,null,null,null,11930.595,null,null,null,null,null,below,IBstimulus_absent,null,null,24466.205
7,94,1,vertical,vertical,null,null,null,3726.805,null,null,null,null,null,below,IBstimulus_absent,null,null,14517.14
7,94,2,vertical,vertical,null,null,null,3679.1,null,null,null,null,null,below,IBstimulus_absent,null,null,14164.285
7,94,3,vertical,horizontal,yes,red,reportColor,15712.265,6896.565,7007.23,14599.87,3677.585,11784.21,above,IBstimulus_present,red,right,70459.575
7,95,0,vertical,vertical,null,null,null,3195.06,null,null,null,null,null,below,IBstimulus_absent,null,null,57844.86
7,95,1,vertical,vertical,null,null,null,1452.325,null,null,null,null,null,above,IBstimulus_absent,null,null,8406.73
7,95,2,vertical,vertical,null,null,null,3346.655,null,null,null,null,null,above,IBstimulus_absent,null,null,10159.255
7,95,3,horizontal,horizontal,no,blue,reportColor,1279.94,3428.06,6205.045,3347.745,11927.63,20296.795,above,IBstimulus_present,red,right,49833.2
7,96,0,horizontal,horizontal,null,null,null,2396.94,null,null,null,null,null,below,IBstimulus_absent,null,null,15269.97
7,96,1,horizontal,horizontal,null,null,null,2023.205,null,null,null,null,null,above,IBstimulus_absent,null,null,7157.045
7,96,2,vertical,vertical,null,null,null,1673.135,null,null,null,null,null,above,IBstimulus_absent,null,null,10415.085
7,96,3,horizontal,horizontal,no,blue,reportColor,3288.6,7799.685,13727.3,6471.475,4111.565,4927.48,below,IBstimulus_present,blue,right,47474.125
7,97,0,horizontal,horizontal,null,null,null,2414.935,null,null,null,null,null,below,IBstimulus_absent,null,null,8283.33
7,97,1,horizontal,horizontal,null,null,null,1692.14,null,null,null,null,null,above,IBstimulus_absent,null,null,5504.35
7,97,2,horizontal,horizontal,null,null,null,2312.96,null,null,null,null,null,above,IBstimulus_absent,null,null,5557.74
7,97,3,vertical,vertical,no,blue,reportColor,1671.52,6106.435,9261.78,6335.58,3382.135,5044.25,above,IBstimulus_absent,null,null,35277.32
7,98,0,horizontal,horizontal,null,null,null,9543.88,null,null,null,null,null,above,IBstimulus_absent,null,null,25957.37
7,98,1,horizontal,horizontal,null,null,null,22459.47,null,null,null,null,null,below,IBstimulus_absent,null,null,33835.24
7,98,2,vertical,vertical,null,null,null,3118.47,null,null,null,null,null,below,IBstimulus_absent,null,null,11396.265
7,98,3,horizontal,horizontal,no,blue,reportColor,8657.425,9092.8,19853.855,12814.755,6422.78,7871.62,below,IBstimulus_absent,null,null,71136.855
7,99,0,vertical,vertical,null,null,null,2783.27,null,null,null,null,null,below,IBstimulus_absent,null,null,11245.93
7,99,1,vertical,vertical,null,null,null,2106.58,null,null,null,null,null,below,IBstimulus_absent,null,null,6481.17
7,99,2,vertical,vertical,null,null,null,2090.22,null,null,null,null,null,above,IBstimulus_absent,null,null,5363.56
7,99,3,vertical,vertical,no,blue,reportColor,3135.66,4434.72,8661.06,3403.425,3630.105,5813.745,above,IBstimulus_present,red,right,32363.26
7,100,0,horizontal,horizontal,null,null,null,6500.49,null,null,null,null,null,below,IBstimulus_absent,null,null,13722.225
7,100,1,horizontal,horizontal,null,null,null,4269.55,null,null,null,null,null,below,IBstimulus_absent,null,null,13015.29
7,100,2,vertical,vertical,null,null,null,2197.765,null,null,null,null,null,above,IBstimulus_absent,null,null,6770.15
7,100,3,vertical,vertical,no,blue,reportColor,1890.345,6250.45,14763.42,6951.27,4281.915,7388.425,above,IBstimulus_absent,null,null,45614.365
7,101,0,horizontal,horizontal,null,null,null,2861.22,null,null,null,null,null,above,IBstimulus_absent,null,null,7562.725
7,101,1,vertical,vertical,null,null,null,1964.17,null,null,null,null,null,below,IBstimulus_absent,null,null,6152.66
7,101,2,vertical,vertical,null,null,null,2100.185,null,null,null,null,null,below,IBstimulus_absent,null,null,5855.69
7,101,3,vertical,vertical,yes,blue,reportColor,3313.19,3382.605,4380.915,3648.68,3316.14,4890.955,below,IBstimulus_present,blue,right,26716.57
7,102,0,horizontal,horizontal,null,null,null,3805.565,null,null,null,null,null,above,IBstimulus_absent,null,null,9264.895
7,102,1,horizontal,horizontal,null,null,null,1712.885,null,null,null,null,null,above,IBstimulus_absent,null,null,11005.125
7,102,2,vertical,vertical,null,null,null,2232.88,null,null,null,null,null,below,IBstimulus_absent,null,null,5871.66
7,102,3,vertical,vertical,no,blue,reportColor,2092.59,5786.04,9182.34,4033.625,2915.955,5915.205,above,IBstimulus_absent,null,null,34130.68
7,103,0,horizontal,null,null,null,null,null,null,null,null,null,null,above,IBstimulus_absent,null,null,
7,103,1,horizontal,null,null,null,null,null,null,null,null,null,null,above,IBstimulus_absent,null,null,
7,103,2,horizontal,null,null,null,null,null,null,null,null,null,null,above,IBstimulus_absent,null,null,
7,103,3,vertical,null,null,null,reportColor,null,null,null,null,null,null,below,IBstimulus_absent,null,null,
7,104,0,vertical,vertical,null,null,null,3144.07,null,null,null,null,null,above,IBstimulus_absent,null,null,8623.38
7,104,1,vertical,vertical,null,null,null,1451.89,null,null,null,null,null,below,IBstimulus_absent,null,null,5323.875
7,104,2,horizontal,horizontal,null,null,null,1149.78,null,null,null,null,null,below,IBstimulus_absent,null,null,4514.17
7,104,3,horizontal,horizontal,yes,blue,reportColor,1105.925,4782.515,2928.865,3093.195,2818.33,3899.61,below,IBstimulus_present,blue,left,22100.3