batchNum,subjectID ,trialNum,longerArm,response_longerArm,response_yesNo,response_AFC,AFCquestion,RT_longerArm,RT_yesNo,RT_AFC,RT_IBfamiliarity,RT_age,RT_ishihara,aboveBelow,trialType,IBstimulus_color,IBstimulus_location,trialTime
2,0,0,horizontal,horizontal,null,null,null,3777.815,null,null,null,null,null,below,IBstimulus_absent,null,null,8590.185
2,0,1,vertical,vertical,null,null,null,2742.74,null,null,null,null,null,above,IBstimulus_absent,null,null,6493.055
2,0,2,horizontal,horizontal,null,null,null,2603.485,null,null,null,null,null,below,IBstimulus_absent,null,null,7134.055
2,0,3,vertical,vertical,yes,red,reportColor,3984.4,5388.38,4305.77,25752.67,5377.205,4926.835,below,IBstimulus_present,blue,left,53119.05
2,1,0,horizontal,horizontal,null,null,null,1107,null,null,null,null,null,below,IBstimulus_absent,null,null,5603
2,1,1,horizontal,horizontal,null,null,null,962,null,null,null,null,null,above,IBstimulus_absent,null,null,3732
2,1,2,horizontal,horizontal,null,null,null,1951,null,null,null,null,null,below,IBstimulus_absent,null,null,5919
2,1,3,vertical,vertical,no,blue,reportColor,1216,10196,4487,2046,2616,2367,below,IBstimulus_absent,null,null,36048
2,2,0,vertical,vertical,null,null,null,2267.245,null,null,null,null,null,below,IBstimulus_absent,null,null,6059.45
2,2,1,vertical,vertical,null,null,null,2172.295,null,null,null,null,null,below,IBstimulus_absent,null,null,8415.08
2,2,2,horizontal,horizontal,null,null,null,1795.41,null,null,null,null,null,below,IBstimulus_absent,null,null,5085.415
2,2,3,horizontal,horizontal,yes,blue,reportColor,2301.9,2340.155,3070.71,4208.96,3472.325,3750.485,above,IBstimulus_present,blue,right,22089.915
2,3,0,vertical,vertical,null,null,null,6505.445,null,null,null,null,null,below,IBstimulus_absent,null,null,17727.48
2,3,1,horizontal,horizontal,null,null,null,2987.49,null,null,null,null,null,below,IBstimulus_absent,null,null,6794.11
2,3,2,vertical,vertical,null,null,null,2821.51,null,null,null,null,null,above,IBstimulus_absent,null,null,7165.285
2,3,3,horizontal,vertical,yes,red,reportColor,3630.655,2967.765,3279.475,6695.105,8519.735,4696.2,above,IBstimulus_present,red,right,33744.855
2,4,0,vertical,vertical,null,null,null,3938.71,null,null,null,null,null,below,IBstimulus_absent,null,null,9623.715
2,4,1,vertical,vertical,null,null,null,2613.305,null,null,null,null,null,above,IBstimulus_absent,null,null,13269.845
2,4,2,horizontal,horizontal,null,null,null,3374.835,null,null,null,null,null,above,IBstimulus_absent,null,null,7558.02
2,4,3,horizontal,horizontal,no,red,reportColor,3476.58,4947.81,9473.76,6440.47,5070.665,5760.59,above,IBstimulus_present,red,right,38390.23
2,5,0,vertical,horizontal,null,null,null,2361.97,null,null,null,null,null,below,IBstimulus_absent,null,null,6787.585
2,5,1,horizontal,horizontal,null,null,null,1789.885,null,null,null,null,null,above,IBstimulus_absent,null,null,5333.71
2,5,2,vertical,vertical,null,null,null,1240.695,null,null,null,null,null,below,IBstimulus_absent,null,null,7656.225
2,5,3,horizontal,horizontal,yes,red,reportColor,1441.295,3030.645,861.82,2555.015,2460.695,3723.94,above,IBstimulus_present,red,right,16775.37
2,6,0,vertical,vertical,null,null,null,7275.02,null,null,null,null,null,above,IBstimulus_absent,null,null,12649.695
2,6,1,vertical,vertical,null,null,null,3608.88,null,null,null,null,null,above,IBstimulus_absent,null,null,7547.965
2,6,2,horizontal,horizontal,null,null,null,1732.96,null,null,null,null,null,above,IBstimulus_absent,null,null,5337.47
2,6,3,vertical,vertical,yes,blue,reportColor,2021.28,3923.585,2336.935,22020.16,3360.445,3300.075,above,IBstimulus_present,blue,left,39904.57
2,7,0,vertical,vertical,null,null,null,2499,null,null,null,null,null,above,IBstimulus_absent,null,null,9311
2,7,1,horizontal,horizontal,null,null,null,3926,null,null,null,null,null,above,IBstimulus_absent,null,null,8924
2,7,2,vertical,vertical,null,null,null,2235,null,null,null,null,null,below,IBstimulus_absent,null,null,6960
2,7,3,horizontal,horizontal,no,blue,reportColor,2205,4939,5459,3269,9594,11550,above,IBstimulus_absent,null,null,41411
2,8,0,horizontal,horizontal,null,null,null,6051.625,null,null,null,null,null,below,IBstimulus_absent,null,null,14882.62
2,8,1,vertical,vertical,null,null,null,3903.53,null,null,null,null,null,below,IBstimulus_absent,null,null,9910.84
2,8,2,vertical,vertical,null,null,null,2427.905,null,null,null,null,null,below,IBstimulus_absent,null,null,7436.215
2,8,3,vertical,vertical,yes,blue,reportColor,2779.06,8707.3,7387.875,10815.78,5117.105,6967.74,above,IBstimulus_present,blue,right,45365.61
2,9,0,horizontal,horizontal,null,null,null,3451.51,null,null,null,null,null,above,IBstimulus_absent,null,null,7346.22
2,9,1,vertical,vertical,null,null,null,1360.55,null,null,null,null,null,below,IBstimulus_absent,null,null,8139.93
2,9,2,horizontal,horizontal,null,null,null,1195.54,null,null,null,null,null,above,IBstimulus_absent,null,null,4150.36
2,9,3,horizontal,horizontal,yes,blue,reportColor,2119.455,2217.85,4012.075,2837.445,3141.565,3541.885,below,IBstimulus_present,blue,left,20785.46
2,10,0,vertical,vertical,null,null,null,1636,null,null,null,null,null,below,IBstimulus_absent,null,null,6467
2,10,1,vertical,vertical,null,null,null,3819,null,null,null,null,null,above,IBstimulus_absent,null,null,8329
2,10,2,vertical,horizontal,null,null,null,1971,null,null,null,null,null,above,IBstimulus_absent,null,null,5884
2,10,3,horizontal,horizontal,yes,red,reportColor,1485,2008,1176,2016,1956,1852,below,IBstimulus_present,red,right,13927
2,11,0,vertical,horizontal,null,null,null,2971.685,null,null,null,null,null,below,IBstimulus_absent,null,null,8024.975
2,11,1,vertical,vertical,null,null,null,4766.345,null,null,null,null,null,below,IBstimulus_absent,null,null,9069.685
2,11,2,vertical,vertical,null,null,null,2011.425,null,null,null,null,null,below,IBstimulus_absent,null,null,6182.41
2,11,3,vertical,vertical,yes,red,reportColor,2101.34,4858.275,2492.875,10335.015,3531.115,3084.935,below,IBstimulus_present,red,left,30312.43
2,12,0,horizontal,horizontal,null,null,null,2927.2,null,null,null,null,null,below,IBstimulus_absent,null,null,7587.695
2,12,1,vertical,vertical,null,null,null,2290.955,null,null,null,null,null,above,IBstimulus_absent,null,null,7643.59
2,12,2,horizontal,horizontal,null,null,null,1995.355,null,null,null,null,null,below,IBstimulus_absent,null,null,5142.73
2,12,3,vertical,vertical,yes,red,reportColor,5103.765,2453.825,2716.23,2713.595,3066.895,3419.82,below,IBstimulus_present,red,left,23362.68
2,13,0,vertical,vertical,null,null,null,1492,null,null,null,null,null,above,IBstimulus_absent,null,null,7523
2,13,1,vertical,vertical,null,null,null,1336,null,null,null,null,null,below,IBstimulus_absent,null,null,5092
2,13,2,vertical,vertical,null,null,null,1336,null,null,null,null,null,above,IBstimulus_absent,null,null,5650
2,13,3,vertical,vertical,yes,blue,reportColor,1338,4723,5002,3266,2682,2254,above,IBstimulus_present,blue,right,22497
2,14,0,vertical,horizontal,null,null,null,15331.79,null,null,null,null,null,above,IBstimulus_absent,null,null,39366.43
2,14,1,vertical,vertical,null,null,null,6226.675,null,null,null,null,null,above,IBstimulus_absent,null,null,49095.815
2,14,2,horizontal,vertical,null,null,null,14258.87,null,null,null,null,null,below,IBstimulus_absent,null,null,30493.22
2,14,3,vertical,vertical,no,blue,reportColor,28340.155,11633.005,16322.92,20666.775,7403.78,14237.05,below,IBstimulus_present,blue,right,112584.32
2,15,0,horizontal,horizontal,null,null,null,5365.34,null,null,null,null,null,above,IBstimulus_absent,null,null,12510
2,15,1,vertical,vertical,null,null,null,2387.82,null,null,null,null,null,below,IBstimulus_absent,null,null,8062.96
2,15,2,horizontal,horizontal,null,null,null,1766.56,null,null,null,null,null,below,IBstimulus_absent,null,null,7199.04
2,15,3,horizontal,horizontal,yes,red,reportColor,9098.035,3424.195,4960.31,5927.98,3328.445,6576.59,below,IBstimulus_present,red,left,38378.405
2,16,0,vertical,vertical,null,null,null,1943.415,null,null,null,null,null,below,IBstimulus_absent,null,null,7347.68
2,16,1,horizontal,horizontal,null,null,null,1523.175,null,null,null,null,null,below,IBstimulus_absent,null,null,7943.885
2,16,2,vertical,vertical,null,null,null,2134.885,null,null,null,null,null,below,IBstimulus_absent,null,null,5014.47
2,16,3,horizontal,horizontal,yes,blue,reportColor,2680,3012.81,6152.625,4273.485,2832.925,2232.09,above,IBstimulus_absent,null,null,24682.14
2,17,0,vertical,vertical,null,null,null,4970.72,null,null,null,null,null,below,IBstimulus_absent,null,null,19287.45
2,17,1,horizontal,horizontal,null,null,null,2566.64,null,null,null,null,null,above,IBstimulus_absent,null,null,7059.095
2,17,2,vertical,vertical,null,null,null,3653.015,null,null,null,null,null,above,IBstimulus_absent,null,null,7183.995
2,17,3,vertical,vertical,no,blue,reportColor,2259.515,7168.335,14745.405,6542.1,4241.19,29172.365,below,IBstimulus_absent,null,null,67185.745
2,18,0,horizontal,horizontal,null,null,null,3186.9,null,null,null,null,null,above,IBstimulus_absent,null,null,7017.4
2,18,1,vertical,vertical,null,null,null,1747.1,null,null,null,null,null,above,IBstimulus_absent,null,null,4708.03
2,18,2,horizontal,horizontal,null,null,null,1684.825,null,null,null,null,null,above,IBstimulus_absent,null,null,4900.245
2,18,3,horizontal,horizontal,yes,red,reportColor,2371.465,2938.755,1582.575,3154.23,4318.075,2792.44,below,IBstimulus_present,red,right,19936.715
2,19,0,vertical,vertical,null,null,null,3136.21,null,null,null,null,null,below,IBstimulus_absent,null,null,8398.78
2,19,1,vertical,vertical,null,null,null,1808.69,null,null,null,null,null,below,IBstimulus_absent,null,null,9253.68
2,19,2,vertical,vertical,null,null,null,1807.835,null,null,null,null,null,below,IBstimulus_absent,null,null,4631.275
2,19,3,vertical,vertical,yes,red,reportColor,2242.52,2864.155,5312.51,4040.05,3072.205,4192.26,above,IBstimulus_present,red,right,24674.44
2,20,0,horizontal,horizontal,null,null,null,14576,null,null,null,null,null,below,IBstimulus_absent,null,null,24576
2,20,1,vertical,vertical,null,null,null,2247,null,null,null,null,null,above,IBstimulus_absent,null,null,8936
2,20,2,vertical,vertical,null,null,null,1729,null,null,null,null,null,above,IBstimulus_absent,null,null,4848
2,20,3,horizontal,horizontal,no,red,reportColor,1491,4593,9104,6585,2712,5744,above,IBstimulus_present,red,right,36669
2,21,0,horizontal,horizontal,null,null,null,5836.27,null,null,null,null,null,below,IBstimulus_absent,null,null,14086.28
2,21,1,horizontal,horizontal,null,null,null,1724.575,null,null,null,null,null,below,IBstimulus_absent,null,null,5886.145
2,21,2,vertical,vertical,null,null,null,2531.835,null,null,null,null,null,above,IBstimulus_absent,null,null,6439.495
2,21,3,vertical,vertical,no,blue,reportColor,1760.465,5716.89,10347.54,5305.72,3321.565,5495.875,below,IBstimulus_absent,null,null,39398.76
2,22,0,horizontal,null,null,null,null,null,null,null,null,null,null,below,IBstimulus_absent,null,null,
2,22,1,vertical,null,null,null,null,null,null,null,null,null,null,below,IBstimulus_absent,null,null,
2,22,2,horizontal,null,null,null,null,null,null,null,null,null,null,below,IBstimulus_absent,null,null,
2,22,3,vertical,null,null,null,reportColor,null,null,null,null,null,null,below,IBstimulus_absent,null,null,
2,23,0,horizontal,horizontal,null,null,null,1852.875,null,null,null,null,null,below,IBstimulus_absent,null,null,6996.72
2,23,1,horizontal,horizontal,null,null,null,1710.79,null,null,null,null,null,below,IBstimulus_absent,null,null,9705.1
2,23,2,horizontal,horizontal,null,null,null,1208.095,null,null,null,null,null,above,IBstimulus_absent,null,null,4314.95
2,23,3,vertical,vertical,yes,blue,reportColor,1339.475,6474.455,10323.385,4396.735,3198.795,2650.31,above,IBstimulus_absent,null,null,34855.805
2,24,0,horizontal,horizontal,null,null,null,2671.92,null,null,null,null,null,below,IBstimulus_absent,null,null,7476.955
2,24,1,vertical,vertical,null,null,null,1383.91,null,null,null,null,null,above,IBstimulus_absent,null,null,5257.65
2,24,2,vertical,vertical,null,null,null,1714.705,null,null,null,null,null,below,IBstimulus_absent,null,null,4831.465
2,24,3,vertical,vertical,no,blue,reportColor,2147.375,3631.8,5959.515,3661.67,2949.68,4185.705,above,IBstimulus_absent,null,null,27554.45
2,25,0,vertical,vertical,null,null,null,4408,null,null,null,null,null,below,IBstimulus_absent,null,null,10070
2,25,1,horizontal,horizontal,null,null,null,3407,null,null,null,null,null,below,IBstimulus_absent,null,null,11325
2,25,2,vertical,vertical,null,null,null,3160,null,null,null,null,null,above,IBstimulus_absent,null,null,7452
2,25,3,horizontal,horizontal,yes,red,reportColor,4980,4316,4864,7067,3605,8766,below,IBstimulus_present,red,left,37458
2,26,0,vertical,vertical,null,null,null,3552.555,null,null,null,null,null,below,IBstimulus_absent,null,null,9862.07
2,26,1,vertical,vertical,null,null,null,4653.915,null,null,null,null,null,below,IBstimulus_absent,null,null,9261.025
2,26,2,vertical,vertical,null,null,null,4369.59,null,null,null,null,null,above,IBstimulus_absent,null,null,9109.96
2,26,3,horizontal,horizontal,no,red,reportColor,2090.605,4745.415,8507.85,4479.64,3618.18,6110.38,above,IBstimulus_absent,null,null,33226.99
2,27,0,vertical,horizontal,null,null,null,4032.09,null,null,null,null,null,above,IBstimulus_absent,null,null,10239.65
2,27,1,vertical,vertical,null,null,null,1983.58,null,null,null,null,null,below,IBstimulus_absent,null,null,6557.85
2,27,2,horizontal,horizontal,null,null,null,3365.15,null,null,null,null,null,below,IBstimulus_absent,null,null,6615.655
2,27,3,horizontal,horizontal,no,blue,reportColor,3161.11,3432.74,6492.125,3696.685,4054.665,5094.15,above,IBstimulus_absent,null,null,29468.76
2,28,0,horizontal,horizontal,null,null,null,5894.14,null,null,null,null,null,below,IBstimulus_absent,null,null,12739.125
2,28,1,horizontal,horizontal,null,null,null,2521.585,null,null,null,null,null,above,IBstimulus_absent,null,null,12128.835
2,28,2,vertical,vertical,null,null,null,2673.6,null,null,null,null,null,below,IBstimulus_absent,null,null,6736.555
2,28,3,vertical,vertical,no,blue,reportColor,2393.38,5669.7,10735.55,7482.505,5027.66,7836.61,above,IBstimulus_absent,null,null,43205.88
2,29,0,horizontal,horizontal,null,null,null,3124.94,null,null,null,null,null,above,IBstimulus_absent,null,null,7892.59
2,29,1,vertical,vertical,null,null,null,2352.815,null,null,null,null,null,above,IBstimulus_absent,null,null,6475.195
2,29,2,horizontal,horizontal,null,null,null,1454.485,null,null,null,null,null,above,IBstimulus_absent,null,null,5454.245
2,29,3,horizontal,horizontal,yes,red,reportColor,5054.78,2946.465,2474.81,5399.895,2788.25,5243.435,above,IBstimulus_present,red,left,26922.22
2,30,0,horizontal,horizontal,null,null,null,5790.87,null,null,null,null,null,below,IBstimulus_absent,null,null,14371.43
2,30,1,vertical,vertical,null,null,null,7391.1,null,null,null,null,null,above,IBstimulus_absent,null,null,11637.015
2,30,2,vertical,vertical,null,null,null,3039.495,null,null,null,null,null,below,IBstimulus_absent,null,null,6203
2,30,3,vertical,horizontal,yes,blue,reportColor,6993.935,9208.51,15584.28,14259.1,4315.775,12835.715,below,IBstimulus_present,red,left,66774.885
2,31,0,horizontal,horizontal,null,null,null,6695.325,null,null,null,null,null,below,IBstimulus_absent,null,null,17660.42
2,31,1,vertical,vertical,null,null,null,5342.64,null,null,null,null,null,above,IBstimulus_absent,null,null,14277.135
2,31,2,vertical,vertical,null,null,null,5040.345,null,null,null,null,null,below,IBstimulus_absent,null,null,11063.73
2,31,3,vertical,vertical,no,blue,reportColor,4201.71,8950.62,23516.32,5253,5702.805,5267.015,below,IBstimulus_absent,null,null,58876.495
2,32,0,vertical,vertical,null,null,null,2891,null,null,null,null,null,above,IBstimulus_absent,null,null,6871
2,32,1,horizontal,horizontal,null,null,null,1811,null,null,null,null,null,above,IBstimulus_absent,null,null,4385
2,32,2,vertical,vertical,null,null,null,1705,null,null,null,null,null,below,IBstimulus_absent,null,null,4274
2,32,3,horizontal,horizontal,yes,red,reportColor,1526,1630,1372,3407,3161,3601,above,IBstimulus_present,red,right,17126
2,33,0,vertical,vertical,null,null,null,7539.955,null,null,null,null,null,below,IBstimulus_absent,null,null,13357.985
2,33,1,horizontal,vertical,null,null,null,3477.915,null,null,null,null,null,above,IBstimulus_absent,null,null,8846.92
2,33,2,horizontal,horizontal,null,null,null,1794.45,null,null,null,null,null,above,IBstimulus_absent,null,null,7273.94
2,33,3,horizontal,horizontal,no,red,reportColor,3878.21,3980.72,7666.58,5667.585,3085.885,20907.615,above,IBstimulus_absent,null,null,48715.12
2,34,0,vertical,vertical,null,null,null,5208.41,null,null,null,null,null,above,IBstimulus_absent,null,null,19666.835
2,34,1,vertical,vertical,null,null,null,4596.615,null,null,null,null,null,below,IBstimulus_absent,null,null,11453.1
2,34,2,horizontal,horizontal,null,null,null,5909.595,null,null,null,null,null,below,IBstimulus_absent,null,null,10871.07
2,34,3,vertical,vertical,no,blue,reportColor,1789.26,6792.2,12647.675,5007.355,3216.405,8600.315,above,IBstimulus_absent,null,null,42022.545
2,35,0,horizontal,horizontal,null,null,null,3626.79,null,null,null,null,null,below,IBstimulus_absent,null,null,11969.5
2,35,1,horizontal,horizontal,null,null,null,3116.735,null,null,null,null,null,below,IBstimulus_absent,null,null,11453.8
2,35,2,vertical,vertical,null,null,null,3110.76,null,null,null,null,null,above,IBstimulus_absent,null,null,8342.985
2,35,3,vertical,vertical,no,blue,reportColor,2683.25,8739.29,6979.85,23921.34,3250.26,5725.245,above,IBstimulus_absent,null,null,55690.865
2,36,0,vertical,vertical,null,null,null,2482.84,null,null,null,null,null,above,IBstimulus_absent,null,null,19438.1
2,36,1,horizontal,horizontal,null,null,null,1514.665,null,null,null,null,null,below,IBstimulus_absent,null,null,5531.085
2,36,2,horizontal,horizontal,null,null,null,1615.79,null,null,null,null,null,above,IBstimulus_absent,null,null,5387.12
2,36,3,vertical,vertical,yes,blue,reportColor,1896.28,6009.43,4640.075,6127.61,3987.68,6149.905,above,IBstimulus_absent,null,null,32510.035
2,37,0,horizontal,vertical,null,null,null,5120,null,null,null,null,null,below,IBstimulus_absent,null,null,10981.02
2,37,1,vertical,vertical,null,null,null,1728.745,null,null,null,null,null,below,IBstimulus_absent,null,null,6415.465
2,37,2,vertical,vertical,null,null,null,2687.155,null,null,null,null,null,above,IBstimulus_absent,null,null,9987.02
2,37,3,horizontal,horizontal,yes,red,reportColor,2726.32,5011.095,1529.75,11135.39,3216.905,4479.32,above,IBstimulus_present,red,left,31957.095
2,38,0,horizontal,horizontal,null,null,null,2629.19,null,null,null,null,null,above,IBstimulus_absent,null,null,10149.015
2,38,1,vertical,vertical,null,null,null,1855.21,null,null,null,null,null,below,IBstimulus_absent,null,null,9163.79
2,38,2,horizontal,horizontal,null,null,null,1280.915,null,null,null,null,null,below,IBstimulus_absent,null,null,4636.88
2,38,3,horizontal,horizontal,yes,red,reportColor,4280.105,2414.975,3231.245,3167.565,3271.535,3944.205,below,IBstimulus_present,red,left,23700.88
2,39,0,horizontal,horizontal,null,null,null,2771.935,null,null,null,null,null,below,IBstimulus_absent,null,null,9796.275
2,39,1,horizontal,horizontal,null,null,null,2167.65,null,null,null,null,null,below,IBstimulus_absent,null,null,14462.245
2,39,2,horizontal,horizontal,null,null,null,2383.29,null,null,null,null,null,below,IBstimulus_absent,null,null,7131.395
2,39,3,horizontal,horizontal,yes,red,reportColor,3138.68,4653.53,4839.3,6523.18,4183.7,5094.57,above,IBstimulus_present,red,left,32587.895
2,40,0,vertical,vertical,null,null,null,4389.105,null,null,null,null,null,above,IBstimulus_absent,null,null,10553.275
2,40,1,vertical,vertical,null,null,null,2600.855,null,null,null,null,null,above,IBstimulus_absent,null,null,7347.635
2,40,2,vertical,vertical,null,null,null,1980.335,null,null,null,null,null,below,IBstimulus_absent,null,null,5704.825
2,40,3,vertical,vertical,yes,red,reportColor,1836.16,5562.365,4485.125,5250.195,4701.58,5382.53,below,IBstimulus_present,red,right,30985.06
2,41,0,vertical,horizontal,null,null,null,3670.965,null,null,null,null,null,above,IBstimulus_absent,null,null,13057.975
2,41,1,horizontal,horizontal,null,null,null,3145.85,null,null,null,null,null,above,IBstimulus_absent,null,null,7540.06
2,41,2,vertical,vertical,null,null,null,2477.615,null,null,null,null,null,above,IBstimulus_absent,null,null,5947.325
2,41,3,vertical,vertical,no,blue,reportColor,3217.61,7448.295,8739.505,5228.68,3413.4,5026.045,below,IBstimulus_absent,null,null,36270.305
2,42,0,horizontal,horizontal,null,null,null,2325.68,null,null,null,null,null,below,IBstimulus_absent,null,null,13547.905
2,42,1,vertical,vertical,null,null,null,1620.875,null,null,null,null,null,below,IBstimulus_absent,null,null,5294.285
2,42,2,vertical,vertical,null,null,null,1404.955,null,null,null,null,null,below,IBstimulus_absent,null,null,4380.475
2,42,3,horizontal,horizontal,yes,red,reportColor,2248.885,2780.095,3899.335,6253.245,3030.29,4433.66,above,IBstimulus_present,red,left,25510.345
2,43,0,vertical,vertical,null,null,null,2046.92,null,null,null,null,null,above,IBstimulus_absent,null,null,16994.86
2,43,1,horizontal,horizontal,null,null,null,3133.095,null,null,null,null,null,above,IBstimulus_absent,null,null,6562.475
2,43,2,horizontal,horizontal,null,null,null,2676.53,null,null,null,null,null,below,IBstimulus_absent,null,null,7675.325
2,43,3,vertical,vertical,no,blue,reportColor,5602.245,3438.225,3516.695,10497.135,3806.98,4184.005,below,IBstimulus_absent,null,null,41141.755
2,44,0,horizontal,horizontal,null,null,null,2325.68,null,null,null,null,null,below,IBstimulus_absent,null,null,13547.905
2,44,1,vertical,vertical,null,null,null,1620.875,null,null,null,null,null,below,IBstimulus_absent,null,null,5294.285
2,44,2,vertical,vertical,null,null,null,1404.955,null,null,null,null,null,below,IBstimulus_absent,null,null,4380.475
2,44,3,horizontal,horizontal,yes,red,reportColor,2248.885,2780.095,3899.335,6253.245,3030.29,4433.66,above,IBstimulus_present,red,left,25510.345
2,45,0,vertical,vertical,null,null,null,14622.69,null,null,null,null,null,above,IBstimulus_absent,null,null,27991.9
2,45,1,vertical,vertical,null,null,null,1601.095,null,null,null,null,null,above,IBstimulus_absent,null,null,10989.86
2,45,2,horizontal,horizontal,null,null,null,2237.195,null,null,null,null,null,below,IBstimulus_absent,null,null,8009.815
2,45,3,vertical,vertical,yes,red,reportColor,1764.505,11265.69,8357.26,7663.35,6570.125,5651.985,below,IBstimulus_absent,null,null,45269.31
2,46,0,horizontal,horizontal,null,null,null,5084,null,null,null,null,null,below,IBstimulus_absent,null,null,22293
2,46,1,horizontal,horizontal,null,null,null,4284,null,null,null,null,null,above,IBstimulus_absent,null,null,15920
2,46,2,vertical,vertical,null,null,null,3736,null,null,null,null,null,below,IBstimulus_absent,null,null,8650
2,46,3,vertical,vertical,yes,blue,reportColor,3915,5740,6060,6007,6211,12789,below,IBstimulus_present,blue,left,44698
2,47,0,horizontal,horizontal,null,null,null,3068,null,null,null,null,null,above,IBstimulus_absent,null,null,9798
2,47,1,horizontal,horizontal,null,null,null,3422,null,null,null,null,null,above,IBstimulus_absent,null,null,7707
2,47,2,vertical,vertical,null,null,null,2495,null,null,null,null,null,below,IBstimulus_absent,null,null,7215
2,47,3,horizontal,vertical,yes,blue,reportColor,4767,5293,11310,7500,4325,5416,below,IBstimulus_present,red,right,42428
2,48,0,vertical,vertical,null,null,null,1088.745,null,null,null,null,null,above,IBstimulus_absent,null,null,5795.585
2,48,1,horizontal,horizontal,null,null,null,1145.36,null,null,null,null,null,below,IBstimulus_absent,null,null,5071.575
2,48,2,vertical,vertical,null,null,null,1273.085,null,null,null,null,null,above,IBstimulus_absent,null,null,4709.515
2,48,3,horizontal,horizontal,no,blue,reportColor,1176.33,3554.395,5169.015,2421.515,3339.68,3203.12,below,IBstimulus_absent,null,null,22292
2,49,0,horizontal,horizontal,null,null,null,5366.065,null,null,null,null,null,below,IBstimulus_absent,null,null,13929.305
2,49,1,horizontal,vertical,null,null,null,10512.96,null,null,null,null,null,below,IBstimulus_absent,null,null,15051.045
2,49,2,horizontal,vertical,null,null,null,6657.615,null,null,null,null,null,below,IBstimulus_absent,null,null,10335.8
2,49,3,horizontal,horizontal,yes,blue,reportColor,4002.79,3886.785,7296.08,9312.25,4992.775,7403.38,above,IBstimulus_present,red,left,40671.86
2,50,0,vertical,vertical,null,null,null,3331.085,null,null,null,null,null,below,IBstimulus_absent,null,null,8899.075
2,50,1,vertical,vertical,null,null,null,3407.925,null,null,null,null,null,below,IBstimulus_absent,null,null,7272.895
2,50,2,vertical,vertical,null,null,null,2541.205,null,null,null,null,null,below,IBstimulus_absent,null,null,6782.615
2,50,3,horizontal,horizontal,no,blue,reportColor,2258.525,5726.515,6288.63,5437.95,4257.34,7581.82,below,IBstimulus_absent,null,null,34861.175
2,51,0,vertical,vertical,null,null,null,2040.81,null,null,null,null,null,above,IBstimulus_absent,null,null,9902.64
2,51,1,vertical,vertical,null,null,null,1644.515,null,null,null,null,null,above,IBstimulus_absent,null,null,9219.81
2,51,2,vertical,vertical,null,null,null,2118.86,null,null,null,null,null,below,IBstimulus_absent,null,null,4870.005
2,51,3,vertical,vertical,yes,red,reportColor,1637.47,5276.155,3688.935,6057.885,3349.395,4373.67,above,IBstimulus_present,red,right,27118.005
2,52,0,horizontal,horizontal,null,null,null,2758.675,null,null,null,null,null,below,IBstimulus_absent,null,null,8431.295
2,52,1,vertical,vertical,null,null,null,2214.895,null,null,null,null,null,above,IBstimulus_absent,null,null,6552.005
2,52,2,vertical,vertical,null,null,null,1995.11,null,null,null,null,null,above,IBstimulus_absent,null,null,4992.515
2,52,3,horizontal,horizontal,yes,blue,reportColor,1991.475,3117.59,4057.64,3969.305,2405.695,3219.955,below,IBstimulus_present,blue,right,24379.145
2,53,0,horizontal,horizontal,null,null,null,3154.67,null,null,null,null,null,below,IBstimulus_absent,null,null,8408.225
2,53,1,vertical,vertical,null,null,null,1433.26,null,null,null,null,null,below,IBstimulus_absent,null,null,4843.37
2,53,2,horizontal,horizontal,null,null,null,1060.195,null,null,null,null,null,above,IBstimulus_absent,null,null,3758.735
2,53,3,vertical,vertical,no,blue,reportColor,1059.02,5191.42,5235.545,2651.625,4871.21,2429.72,above,IBstimulus_present,blue,right,24187.53
2,54,0,horizontal,vertical,null,null,null,2824.975,null,null,null,null,null,below,IBstimulus_absent,null,null,13760.68
2,54,1,horizontal,horizontal,null,null,null,1600.07,null,null,null,null,null,above,IBstimulus_absent,null,null,9201.78
2,54,2,vertical,vertical,null,null,null,1399.89,null,null,null,null,null,above,IBstimulus_absent,null,null,5397.435
2,54,3,horizontal,horizontal,no,red,reportColor,2537.16,5515.785,15153.63,4968.6,3642.895,5578.99,below,IBstimulus_present,red,right,46883.51
2,55,0,horizontal,horizontal,null,null,null,3705.615,null,null,null,null,null,above,IBstimulus_absent,null,null,10298.45
2,55,1,vertical,vertical,null,null,null,2614.575,null,null,null,null,null,below,IBstimulus_absent,null,null,16332.245
2,55,2,horizontal,horizontal,null,null,null,3556.23,null,null,null,null,null,below,IBstimulus_absent,null,null,7589.73
2,55,3,horizontal,horizontal,no,blue,reportColor,2172.845,4672.58,5934.15,3191.1,3903.815,6301.54,above,IBstimulus_absent,null,null,30415.705
2,56,0,vertical,vertical,null,null,null,4325.425,null,null,null,null,null,below,IBstimulus_absent,null,null,9423.215
2,56,1,horizontal,horizontal,null,null,null,1732.48,null,null,null,null,null,above,IBstimulus_absent,null,null,4494.535
2,56,2,vertical,vertical,null,null,null,2612.005,null,null,null,null,null,below,IBstimulus_absent,null,null,5627.755
2,56,3,horizontal,horizontal,yes,blue,reportColor,1846.69,2178.1,1841.01,3226.03,2795.365,2731.51,above,IBstimulus_present,blue,left,17338.69
2,57,0,horizontal,horizontal,null,null,null,3639.15,null,null,null,null,null,below,IBstimulus_absent,null,null,11094.395
2,57,1,vertical,vertical,null,null,null,2708.905,null,null,null,null,null,below,IBstimulus_absent,null,null,6922.2
2,57,2,horizontal,horizontal,null,null,null,5147.055,null,null,null,null,null,below,IBstimulus_absent,null,null,8386.745
2,57,3,horizontal,horizontal,yes,blue,reportColor,9654.87,3912.625,4513.475,7042.015,5228.875,6925.295,above,IBstimulus_present,blue,right,41114.735
2,58,0,horizontal,horizontal,null,null,null,3038,null,null,null,null,null,above,IBstimulus_absent,null,null,8629
2,58,1,vertical,vertical,null,null,null,2170,null,null,null,null,null,below,IBstimulus_absent,null,null,7443
2,58,2,vertical,vertical,null,null,null,1729,null,null,null,null,null,below,IBstimulus_absent,null,null,5192
2,58,3,horizontal,horizontal,no,red,reportColor,1657,4453,6970,4671,4085,5327,below,IBstimulus_present,blue,left,30129
2,59,0,vertical,vertical,null,null,null,2181,null,null,null,null,null,below,IBstimulus_absent,null,null,7156
2,59,1,vertical,vertical,null,null,null,2685,null,null,null,null,null,above,IBstimulus_absent,null,null,5729
2,59,2,vertical,vertical,null,null,null,1561,null,null,null,null,null,below,IBstimulus_absent,null,null,4809
2,59,3,vertical,vertical,yes,red,reportColor,2746,2329,1477,5295,2495,3043,above,IBstimulus_present,red,right,20423
2,60,0,horizontal,horizontal,null,null,null,4838.88,null,null,null,null,null,above,IBstimulus_absent,null,null,11725.33
2,60,1,vertical,vertical,null,null,null,1873.34,null,null,null,null,null,above,IBstimulus_absent,null,null,9516.89
2,60,2,vertical,vertical,null,null,null,1579.09,null,null,null,null,null,below,IBstimulus_absent,null,null,4627.67
2,60,3,vertical,vertical,no,blue,reportColor,1392.7,5888.27,16732.925,7484.24,5452.15,6787.29,below,IBstimulus_present,blue,left,47111.32
2,61,0,horizontal,horizontal,null,null,null,6830.23,null,null,null,null,null,above,IBstimulus_absent,null,null,14037.865
2,61,1,horizontal,horizontal,null,null,null,3497.03,null,null,null,null,null,below,IBstimulus_absent,null,null,14093.305
2,61,2,horizontal,horizontal,null,null,null,2738.43,null,null,null,null,null,below,IBstimulus_absent,null,null,8247.85
2,61,3,horizontal,horizontal,yes,red,reportColor,2550.045,5831.39,4999.81,5639.975,3967.765,5759.42,below,IBstimulus_present,red,left,33153.275
2,62,0,horizontal,horizontal,null,null,null,3669.465,null,null,null,null,null,below,IBstimulus_absent,null,null,11838.005
2,62,1,horizontal,horizontal,null,null,null,1868.33,null,null,null,null,null,below,IBstimulus_absent,null,null,6812.92
2,62,2,horizontal,horizontal,null,null,null,1803.69,null,null,null,null,null,above,IBstimulus_absent,null,null,5934.25
2,62,3,vertical,vertical,yes,red,reportColor,2235.245,4479.72,6599.81,9303.785,2775.81,3391.905,below,IBstimulus_present,red,right,32997.08
2,63,0,horizontal,horizontal,null,null,null,3208.48,null,null,null,null,null,below,IBstimulus_absent,null,null,7715.53
2,63,1,horizontal,horizontal,null,null,null,1592.4,null,null,null,null,null,below,IBstimulus_absent,null,null,4679.71
2,63,2,vertical,vertical,null,null,null,2906.38,null,null,null,null,null,below,IBstimulus_absent,null,null,6295.38
2,63,3,vertical,vertical,yes,blue,reportColor,3107.685,4740.245,5845.1,5378.785,5371.385,4351.56,below,IBstimulus_present,blue,left,31688.04
2,64,0,horizontal,null,null,null,null,null,null,null,null,null,null,below,IBstimulus_absent,null,null,
2,64,1,vertical,null,null,null,null,null,null,null,null,null,null,below,IBstimulus_absent,null,null,
2,64,2,vertical,null,null,null,null,null,null,null,null,null,null,below,IBstimulus_absent,null,null,
2,64,3,horizontal,null,null,null,reportColor,null,null,null,null,null,null,below,IBstimulus_present,red,left,
2,65,0,horizontal,horizontal,null,null,null,3847.995,null,null,null,null,null,above,IBstimulus_absent,null,null,9556.71
2,65,1,horizontal,horizontal,null,null,null,2236.725,null,null,null,null,null,above,IBstimulus_absent,null,null,5775.44
2,65,2,horizontal,horizontal,null,null,null,2411.35,null,null,null,null,null,above,IBstimulus_absent,null,null,5606.585
2,65,3,horizontal,horizontal,no,blue,reportColor,2488.77,8201.305,21421.695,9312.475,4280.545,5687.82,above,IBstimulus_absent,null,null,54592.52
2,66,0,vertical,vertical,null,null,null,3140.29,null,null,null,null,null,above,IBstimulus_absent,null,null,10056.795
2,66,1,vertical,vertical,null,null,null,2402.55,null,null,null,null,null,below,IBstimulus_absent,null,null,24844.245
2,66,2,horizontal,horizontal,null,null,null,1780.785,null,null,null,null,null,above,IBstimulus_absent,null,null,6116.51
2,66,3,horizontal,horizontal,no,blue,reportColor,1274.205,7425.7,14611.07,5828.78,4500.09,7020.84,below,IBstimulus_absent,null,null,45124.38
2,67,0,horizontal,vertical,null,null,null,4524.3,null,null,null,null,null,above,IBstimulus_absent,null,null,11431.58
2,67,1,vertical,vertical,null,null,null,2561.63,null,null,null,null,null,below,IBstimulus_absent,null,null,8268.415
2,67,2,horizontal,horizontal,null,null,null,2164.19,null,null,null,null,null,below,IBstimulus_absent,null,null,6135.535
2,67,3,horizontal,vertical,no,blue,reportColor,4179.715,4855.91,6696.005,4863.44,6767.63,21775.505,below,IBstimulus_absent,null,null,54392.14
2,68,0,horizontal,horizontal,null,null,null,8359.425,null,null,null,null,null,below,IBstimulus_absent,null,null,28544.61
2,68,1,vertical,vertical,null,null,null,4185.265,null,null,null,null,null,below,IBstimulus_absent,null,null,11694.59
2,68,2,horizontal,horizontal,null,null,null,3356.23,null,null,null,null,null,below,IBstimulus_absent,null,null,7320.76
2,68,3,vertical,vertical,no,blue,reportColor,2435.34,5751.355,10622.18,6534.085,6004.19,12090.32,above,IBstimulus_present,red,left,52026.32
2,69,0,horizontal,horizontal,null,null,null,1683.17,null,null,null,null,null,below,IBstimulus_absent,null,null,6549.13
2,69,1,horizontal,horizontal,null,null,null,1776.16,null,null,null,null,null,below,IBstimulus_absent,null,null,5771.12
2,69,2,vertical,vertical,null,null,null,1145.9,null,null,null,null,null,above,IBstimulus_absent,null,null,3870.845
2,69,3,horizontal,horizontal,yes,red,reportColor,1729.685,2071.03,2007.32,3671.505,2760.665,3022.275,below,IBstimulus_present,red,left,18414.13
2,70,0,horizontal,horizontal,null,null,null,6437.235,null,null,null,null,null,above,IBstimulus_absent,null,null,13588.78
2,70,1,vertical,vertical,null,null,null,2049.415,null,null,null,null,null,below,IBstimulus_absent,null,null,6017.305
2,70,2,horizontal,horizontal,null,null,null,1889.965,null,null,null,null,null,above,IBstimulus_absent,null,null,4785.745
2,70,3,vertical,vertical,yes,red,reportColor,2075.85,4150.36,2094.535,4716.815,4373.6,5362.595,below,IBstimulus_present,red,left,25323.02
2,71,0,horizontal,horizontal,null,null,null,4443.415,null,null,null,null,null,below,IBstimulus_absent,null,null,11487.755
2,71,1,vertical,vertical,null,null,null,1815.7,null,null,null,null,null,below,IBstimulus_absent,null,null,6764.285
2,71,2,horizontal,horizontal,null,null,null,1720.34,null,null,null,null,null,below,IBstimulus_absent,null,null,5986.175
2,71,3,vertical,vertical,no,blue,reportColor,1623.57,6181.655,11757.295,5868.055,3320.9,6048.805,below,IBstimulus_absent,null,null,41211.29
2,72,0,horizontal,horizontal,null,null,null,3741,null,null,null,null,null,above,IBstimulus_absent,null,null,14713
2,72,1,horizontal,horizontal,null,null,null,2511,null,null,null,null,null,above,IBstimulus_absent,null,null,6439
2,72,2,vertical,vertical,null,null,null,2319,null,null,null,null,null,above,IBstimulus_absent,null,null,6271
2,72,3,vertical,vertical,yes,blue,reportColor,5619,2508,4382,4538,8585,7926,below,IBstimulus_present,blue,right,37758
2,73,0,vertical,vertical,null,null,null,3611.8,null,null,null,null,null,above,IBstimulus_absent,null,null,10270.995
2,73,1,horizontal,horizontal,null,null,null,2447.74,null,null,null,null,null,above,IBstimulus_absent,null,null,9852.695
2,73,2,horizontal,horizontal,null,null,null,2446.585,null,null,null,null,null,above,IBstimulus_absent,null,null,5645.355
2,73,3,horizontal,horizontal,yes,blue,reportColor,2566.175,3753.345,5283.725,9611.33,3034.095,4877.28,above,IBstimulus_present,blue,left,32596.085
2,74,0,horizontal,horizontal,null,null,null,3120.155,null,null,null,null,null,below,IBstimulus_absent,null,null,9794.66
2,74,1,horizontal,horizontal,null,null,null,3133.16,null,null,null,null,null,above,IBstimulus_absent,null,null,7660.39
2,74,2,vertical,vertical,null,null,null,2407.155,null,null,null,null,null,above,IBstimulus_absent,null,null,7158.465
2,74,3,vertical,vertical,yes,blue,reportColor,4229.36,9594.06,4687.775,17951.405,21048.58,5169.795,below,IBstimulus_present,blue,right,66450.83
2,75,0,vertical,vertical,null,null,null,2109.275,null,null,null,null,null,below,IBstimulus_absent,null,null,6570.05
2,75,1,vertical,vertical,null,null,null,2043.545,null,null,null,null,null,above,IBstimulus_absent,null,null,5640.795
2,75,2,horizontal,horizontal,null,null,null,1640.51,null,null,null,null,null,above,IBstimulus_absent,null,null,5104.62
2,75,3,vertical,vertical,no,red,reportColor,1606.08,2330.975,3848.145,5049.215,3212.04,1942.065,above,IBstimulus_absent,null,null,21633.525
2,76,0,vertical,vertical,null,null,null,2316,null,null,null,null,null,below,IBstimulus_absent,null,null,7228
2,76,1,horizontal,horizontal,null,null,null,1547,null,null,null,null,null,below,IBstimulus_absent,null,null,10661
2,76,2,vertical,vertical,null,null,null,2775,null,null,null,null,null,above,IBstimulus_absent,null,null,6359
2,76,3,horizontal,horizontal,yes,blue,reportColor,1875,4177,2514,5907,2995,4518,below,IBstimulus_present,blue,right,24993
2,77,0,horizontal,horizontal,null,null,null,1589.7,null,null,null,null,null,above,IBstimulus_absent,null,null,7044.29
2,77,1,horizontal,horizontal,null,null,null,1754.04,null,null,null,null,null,below,IBstimulus_absent,null,null,5406.38
2,77,2,vertical,vertical,null,null,null,2364.2,null,null,null,null,null,above,IBstimulus_absent,null,null,7786.245
2,77,3,horizontal,horizontal,yes,blue,reportColor,1896.805,2760.93,1468.225,2608.545,4333.805,3544.63,below,IBstimulus_present,blue,right,19546.235
2,78,0,horizontal,horizontal,null,null,null,2749,null,null,null,null,null,below,IBstimulus_absent,null,null,9370
2,78,1,vertical,vertical,null,null,null,2888,null,null,null,null,null,above,IBstimulus_absent,null,null,6715
2,78,2,horizontal,horizontal,null,null,null,1843,null,null,null,null,null,above,IBstimulus_absent,null,null,5194
2,78,3,horizontal,vertical,yes,blue,reportColor,3205,2840,2247,2891,4133,3747,below,IBstimulus_present,blue,right,22462
2,79,0,vertical,vertical,null,null,null,3400.815,null,null,null,null,null,below,IBstimulus_absent,null,null,14495.97
2,79,1,horizontal,horizontal,null,null,null,2537.575,null,null,null,null,null,above,IBstimulus_absent,null,null,7085.4
2,79,2,horizontal,horizontal,null,null,null,2073.285,null,null,null,null,null,below,IBstimulus_absent,null,null,5048.865
2,79,3,horizontal,horizontal,no,blue,reportColor,2337.465,6763.69,8733.81,6063.94,6331.56,6760.76,below,IBstimulus_present,red,left,39904.185
2,80,0,vertical,vertical,null,null,null,8223.91,null,null,null,null,null,above,IBstimulus_absent,null,null,15255.395
2,80,1,vertical,vertical,null,null,null,2278.05,null,null,null,null,null,below,IBstimulus_absent,null,null,9220.22
2,80,2,vertical,horizontal,null,null,null,3837.94,null,null,null,null,null,above,IBstimulus_absent,null,null,6757.275
2,80,3,vertical,vertical,no,red,reportColor,1432.82,10469.545,9255.29,6712.6,4615.07,5699.755,above,IBstimulus_absent,null,null,40760.9
2,81,0,horizontal,horizontal,null,null,null,5396,null,null,null,null,null,below,IBstimulus_absent,null,null,13758
2,81,1,horizontal,horizontal,null,null,null,1818,null,null,null,null,null,below,IBstimulus_absent,null,null,14380
2,81,2,vertical,vertical,null,null,null,1652,null,null,null,null,null,above,IBstimulus_absent,null,null,5758
2,81,3,vertical,vertical,yes,blue,reportColor,2786,3293,3931,5374,3573,3849,above,IBstimulus_present,blue,left,25711
2,82,0,vertical,horizontal,null,null,null,4816.235,null,null,null,null,null,above,IBstimulus_absent,null,null,14341.725
2,82,1,horizontal,horizontal,null,null,null,3115.81,null,null,null,null,null,above,IBstimulus_absent,null,null,6972.815
2,82,2,vertical,vertical,null,null,null,2595.87,null,null,null,null,null,above,IBstimulus_absent,null,null,5935.57
2,82,3,horizontal,horizontal,no,blue,reportColor,1468.3,4496.045,7567.51,4183.885,3199.945,4247.76,above,IBstimulus_present,red,right,30118.445
2,83,0,vertical,vertical,null,null,null,3093.295,null,null,null,null,null,below,IBstimulus_absent,null,null,13015.095
2,83,1,horizontal,horizontal,null,null,null,2554.94,null,null,null,null,null,below,IBstimulus_absent,null,null,7726.775
2,83,2,vertical,vertical,null,null,null,2106.97,null,null,null,null,null,below,IBstimulus_absent,null,null,7087.135
2,83,3,horizontal,horizontal,no,blue,reportColor,2854.63,5905.94,9753.805,8865.105,4027.68,5197.07,above,IBstimulus_present,red,right,40471.43
2,84,0,vertical,vertical,null,null,null,5601.755,null,null,null,null,null,below,IBstimulus_absent,null,null,17396.37
2,84,1,vertical,vertical,null,null,null,3426.33,null,null,null,null,null,above,IBstimulus_absent,null,null,10836.835
2,84,2,vertical,vertical,null,null,null,3334.745,null,null,null,null,null,above,IBstimulus_absent,null,null,6789.05
2,84,3,vertical,vertical,yes,red,reportColor,2890.505,9220.935,12093.26,9975.405,4213.71,6722.99,below,IBstimulus_present,red,left,48304.475
2,85,0,vertical,vertical,null,null,null,1875.255,null,null,null,null,null,above,IBstimulus_absent,null,null,6908.555
2,85,1,vertical,vertical,null,null,null,2175.455,null,null,null,null,null,above,IBstimulus_absent,null,null,9043.825
2,85,2,horizontal,horizontal,null,null,null,729.64,null,null,null,null,null,below,IBstimulus_absent,null,null,3992.415
2,85,3,vertical,vertical,no,blue,reportColor,767.645,2833.825,4962.825,2783.805,2238.515,2921.945,below,IBstimulus_present,blue,right,19517.305
2,86,0,horizontal,vertical,null,null,null,8923.03,null,null,null,null,null,above,IBstimulus_absent,null,null,16989.08
2,86,1,vertical,vertical,null,null,null,3601.33,null,null,null,null,null,above,IBstimulus_absent,null,null,8963.12
2,86,2,horizontal,horizontal,null,null,null,7372.325,null,null,null,null,null,below,IBstimulus_absent,null,null,12861.86
2,86,3,vertical,vertical,no,blue,reportColor,3592.02,6135.505,13014.825,11591.525,5344.265,8663.955,below,IBstimulus_absent,null,null,52526.75
2,87,0,vertical,vertical,null,null,null,2464.225,null,null,null,null,null,below,IBstimulus_absent,null,null,6985.405
2,87,1,horizontal,horizontal,null,null,null,1857.16,null,null,null,null,null,below,IBstimulus_absent,null,null,5676.87
2,87,2,horizontal,horizontal,null,null,null,1961.07,null,null,null,null,null,below,IBstimulus_absent,null,null,5454.83
2,87,3,horizontal,horizontal,yes,blue,reportColor,2090.03,4203.78,6167.59,3379.895,2937.79,4155.615,above,IBstimulus_absent,null,null,26606.855
2,88,0,horizontal,horizontal,null,null,null,4021.785,null,null,null,null,null,below,IBstimulus_absent,null,null,11357.115
2,88,1,horizontal,horizontal,null,null,null,2874.51,null,null,null,null,null,above,IBstimulus_absent,null,null,6692.805001
2,88,2,vertical,vertical,null,null,null,2294.720001,null,null,null,null,null,below,IBstimulus_absent,null,null,6550.15
2,88,3,vertical,vertical,no,red,reportColor,2003.845,4742.875,8566.245,5050.565,3274.525,4489.98,below,IBstimulus_absent,null,null,32422.795
2,89,0,horizontal,horizontal,null,null,null,2821,null,null,null,null,null,above,IBstimulus_absent,null,null,10076
2,89,1,horizontal,horizontal,null,null,null,2052,null,null,null,null,null,below,IBstimulus_absent,null,null,7213
2,89,2,vertical,vertical,null,null,null,1610,null,null,null,null,null,below,IBstimulus_absent,null,null,7305
2,89,3,horizontal,horizontal,yes,blue,reportColor,3350,3560,6308,7694,4181,5388,above,IBstimulus_present,blue,right,34939
2,90,0,vertical,vertical,null,null,null,6634.085,null,null,null,null,null,above,IBstimulus_absent,null,null,13260.695
2,90,1,horizontal,horizontal,null,null,null,3143.125,null,null,null,null,null,below,IBstimulus_absent,null,null,12154.06
2,90,2,horizontal,horizontal,null,null,null,2205.715,null,null,null,null,null,below,IBstimulus_absent,null,null,8346.115
2,90,3,vertical,vertical,no,red,reportColor,2619.09,4791.315,5962.89,7877.71,6927.89,8678.065,below,IBstimulus_present,red,left,40666.695
2,91,0,horizontal,horizontal,null,null,null,8631,null,null,null,null,null,above,IBstimulus_absent,null,null,17510
2,91,1,horizontal,horizontal,null,null,null,2679,null,null,null,null,null,below,IBstimulus_absent,null,null,8006
2,91,2,horizontal,vertical,null,null,null,2493,null,null,null,null,null,above,IBstimulus_absent,null,null,6494
2,91,3,vertical,vertical,yes,red,reportColor,1975,13021,4536,14800,4049,4549,below,IBstimulus_present,red,left,46679
2,92,0,vertical,vertical,null,null,null,3327.325,null,null,null,null,null,below,IBstimulus_absent,null,null,8675.51
2,92,1,horizontal,horizontal,null,null,null,2201.365,null,null,null,null,null,below,IBstimulus_absent,null,null,7218.405
2,92,2,horizontal,horizontal,null,null,null,2181.635,null,null,null,null,null,above,IBstimulus_absent,null,null,5818.285
2,92,3,vertical,vertical,no,blue,reportColor,3778.135,6413.86,7312.005,4753.465,3653.685,5119.46,below,IBstimulus_absent,null,null,34896.39
2,93,0,vertical,horizontal,null,null,null,7959.235,null,null,null,null,null,above,IBstimulus_absent,null,null,15582.325
2,93,1,horizontal,horizontal,null,null,null,3889.47,null,null,null,null,null,above,IBstimulus_absent,null,null,9214.81
2,93,2,horizontal,horizontal,null,null,null,2500.24,null,null,null,null,null,above,IBstimulus_absent,null,null,7400.83
2,93,3,horizontal,vertical,yes,blue,reportColor,3253.105,8372.08,8975.41,5151.615,4924.915,6559.94,below,IBstimulus_present,red,right,42073.805
2,94,0,vertical,vertical,null,null,null,3637.4,null,null,null,null,null,above,IBstimulus_absent,null,null,9092.285
2,94,1,horizontal,horizontal,null,null,null,2984.82,null,null,null,null,null,above,IBstimulus_absent,null,null,7145.985
2,94,2,horizontal,horizontal,null,null,null,1661.225,null,null,null,null,null,above,IBstimulus_absent,null,null,5071.285
2,94,3,horizontal,horizontal,yes,red,reportColor,4511.44,2803.615,1533.57,3187.54,2929.235,3545.145,above,IBstimulus_present,red,left,22187.695
2,95,0,horizontal,horizontal,null,null,null,2666.445,null,null,null,null,null,above,IBstimulus_absent,null,null,7747.695
2,95,1,horizontal,horizontal,null,null,null,4666.005,null,null,null,null,null,above,IBstimulus_absent,null,null,10946.905
2,95,2,vertical,vertical,null,null,null,2675.305,null,null,null,null,null,below,IBstimulus_absent,null,null,8022.795
2,95,3,horizontal,horizontal,yes,red,reportColor,2052.7,3375.56,5041.11,4838.255,5195.965,3920.65,below,IBstimulus_present,red,right,28436.555
2,96,0,horizontal,horizontal,null,null,null,2455.09,null,null,null,null,null,below,IBstimulus_absent,null,null,8078.5
2,96,1,horizontal,horizontal,null,null,null,2002.985,null,null,null,null,null,above,IBstimulus_absent,null,null,13199.99
2,96,2,horizontal,horizontal,null,null,null,3169.025,null,null,null,null,null,below,IBstimulus_absent,null,null,7263.75
2,96,3,horizontal,horizontal,yes,blue,reportColor,3435.875,3359.61,3056.07,5299.745,3270.575,4788.41,above,IBstimulus_present,blue,left,31135.815
2,97,0,horizontal,horizontal,null,null,null,2328.805,null,null,null,null,null,above,IBstimulus_absent,null,null,7785.55
2,97,1,horizontal,horizontal,null,null,null,1935.47,null,null,null,null,null,below,IBstimulus_absent,null,null,6068.48
2,97,2,vertical,vertical,null,null,null,1743.815,null,null,null,null,null,below,IBstimulus_absent,null,null,5399.71
2,97,3,vertical,vertical,no,blue,reportColor,1698.205,3994.11,6930.99,4041.75,3644.145,4049.355,below,IBstimulus_absent,null,null,33042.815
2,98,0,vertical,vertical,null,null,null,3227.195,null,null,null,null,null,above,IBstimulus_absent,null,null,7651.775
2,98,1,horizontal,horizontal,null,null,null,1269.6,null,null,null,null,null,below,IBstimulus_absent,null,null,5318.15
2,98,2,vertical,vertical,null,null,null,1262.945,null,null,null,null,null,above,IBstimulus_absent,null,null,7851.285
2,98,3,vertical,vertical,no,blue,reportColor,1385.105,4495.73,4952.87,3205.585,2341.56,3073.61,above,IBstimulus_present,blue,right,22148.755
2,99,0,vertical,vertical,null,null,null,3153.39,null,null,null,null,null,below,IBstimulus_absent,null,null,9515.76
2,99,1,vertical,horizontal,null,null,null,3027.905,null,null,null,null,null,above,IBstimulus_absent,null,null,11089.645
2,99,2,vertical,horizontal,null,null,null,1942.895,null,null,null,null,null,below,IBstimulus_absent,null,null,5531.3
2,99,3,horizontal,horizontal,yes,red,reportColor,2985.79,5142.435,3053.16,4238.225,3283.17,4180.96,above,IBstimulus_present,red,left,26356.195
2,100,0,vertical,vertical,null,null,null,4439.765,null,null,null,null,null,below,IBstimulus_absent,null,null,9341.375
2,100,1,horizontal,horizontal,null,null,null,2050.745,null,null,null,null,null,above,IBstimulus_absent,null,null,6778.65
2,100,2,vertical,vertical,null,null,null,2287.345,null,null,null,null,null,above,IBstimulus_absent,null,null,5790.86
2,100,3,horizontal,horizontal,no,red,reportColor,1384.705,4046.82,8655.605,8310.595,2918.86,5729.36,above,IBstimulus_absent,null,null,34877.87
2,101,0,vertical,vertical,null,null,null,4014.845,null,null,null,null,null,above,IBstimulus_absent,null,null,9006.97
2,101,1,vertical,vertical,null,null,null,2324.06,null,null,null,null,null,below,IBstimulus_absent,null,null,6745.58
2,101,2,horizontal,horizontal,null,null,null,1866.395,null,null,null,null,null,below,IBstimulus_absent,null,null,6923.035
2,101,3,horizontal,horizontal,yes,red,reportColor,1988.125,2728.995,2868.305,2752.83,3060.995,4317.695,above,IBstimulus_present,red,right,23212.015
2,102,0,vertical,vertical,null,null,null,1916.32,null,null,null,null,null,below,IBstimulus_absent,null,null,6410.475
2,102,1,horizontal,horizontal,null,null,null,1811.395,null,null,null,null,null,below,IBstimulus_absent,null,null,10426.86
2,102,2,horizontal,horizontal,null,null,null,2129.815,null,null,null,null,null,below,IBstimulus_absent,null,null,5536.535
2,102,3,horizontal,vertical,no,blue,reportColor,1781.54,2973.16,8345.49,3359.775,8031.725,3871.38,above,IBstimulus_absent,null,null,31592.475
2,103,0,vertical,vertical,null,null,null,1350,null,null,null,null,null,below,IBstimulus_absent,null,null,5566
2,103,1,vertical,vertical,null,null,null,985,null,null,null,null,null,below,IBstimulus_absent,null,null,4151
2,103,2,vertical,vertical,null,null,null,1677,null,null,null,null,null,above,IBstimulus_absent,null,null,7193
2,103,3,horizontal,horizontal,yes,red,reportColor,1127,1207,1312,1728,5368,4901,below,IBstimulus_present,red,right,18705
2,104,0,vertical,horizontal,null,null,null,3759.14,null,null,null,null,null,below,IBstimulus_absent,null,null,11666.31
2,104,1,vertical,vertical,null,null,null,4913.64,null,null,null,null,null,above,IBstimulus_absent,null,null,9942.815
2,104,2,horizontal,vertical,null,null,null,3400.835,null,null,null,null,null,below,IBstimulus_absent,null,null,6743.109999
2,104,3,horizontal,horizontal,no,blue,reportColor,3364.630001,5864.31,6945.165001,8601.35,12375.645,11706.875,below,IBstimulus_present,red,right,52433.675
2,105,0,vertical,vertical,null,null,null,3044.455,null,null,null,null,null,above,IBstimulus_absent,null,null,9777.175
2,105,1,vertical,vertical,null,null,null,2660.795,null,null,null,null,null,above,IBstimulus_absent,null,null,6491.85
2,105,2,horizontal,horizontal,null,null,null,3283.53,null,null,null,null,null,above,IBstimulus_absent,null,null,7438.855
2,105,3,vertical,vertical,yes,red,reportColor,2493.03,4595.565,9553.715,4743.085,3712.595,4163.06,above,IBstimulus_present,blue,right,33716.675
2,106,0,horizontal,horizontal,null,null,null,9371,null,null,null,null,null,above,IBstimulus_absent,null,null,25480
2,106,1,vertical,vertical,null,null,null,4674,null,null,null,null,null,above,IBstimulus_absent,null,null,10795
2,106,2,horizontal,horizontal,null,null,null,6946,null,null,null,null,null,above,IBstimulus_absent,null,null,14002
2,106,3,vertical,vertical,no,red,reportColor,6058,15492,17371,9569,5176,10511,below,IBstimulus_present,blue,right,70376
2,107,0,horizontal,horizontal,null,null,null,4416.51,null,null,null,null,null,above,IBstimulus_absent,null,null,9233.705
2,107,1,vertical,vertical,null,null,null,3150.859999,null,null,null,null,null,below,IBstimulus_absent,null,null,11266.515
2,107,2,vertical,vertical,null,null,null,3338.55,null,null,null,null,null,above,IBstimulus_absent,null,null,6953.205
2,107,3,vertical,vertical,no,red,reportColor,2413.77,4213.595,8514.08,3552.375,3488.01,5241.25,below,IBstimulus_absent,null,null,31213.15
2,108,0,vertical,vertical,null,null,null,1143.26,null,null,null,null,null,above,IBstimulus_absent,null,null,4531.71
2,108,1,horizontal,horizontal,null,null,null,1092.945,null,null,null,null,null,above,IBstimulus_absent,null,null,4301.7
2,108,2,vertical,vertical,null,null,null,1209.665,null,null,null,null,null,below,IBstimulus_absent,null,null,4365.1
2,108,3,vertical,vertical,yes,red,reportColor,1045.13,1393.62,880.9000002,2535.47,2118.84,2779.495,above,IBstimulus_present,red,right,13676.065
2,109,0,vertical,vertical,null,null,null,2411.985,null,null,null,null,null,above,IBstimulus_absent,null,null,6050.83
2,109,1,horizontal,horizontal,null,null,null,2262.655,null,null,null,null,null,above,IBstimulus_absent,null,null,8947.3
2,109,2,horizontal,horizontal,null,null,null,2581.24,null,null,null,null,null,above,IBstimulus_absent,null,null,7733.75
2,109,3,vertical,vertical,no,blue,reportColor,3189.07,2702.355,5050.95,2660.505,2607.45,4000.57,below,IBstimulus_absent,null,null,23731.36
2,110,0,vertical,vertical,null,null,null,3536,null,null,null,null,null,below,IBstimulus_absent,null,null,9402
2,110,1,horizontal,horizontal,null,null,null,2616,null,null,null,null,null,below,IBstimulus_absent,null,null,7447
2,110,2,horizontal,horizontal,null,null,null,2897,null,null,null,null,null,above,IBstimulus_absent,null,null,6209
2,110,3,vertical,vertical,no,blue,reportColor,2530,5743,8102,6239,5574,6016,below,IBstimulus_absent,null,null,37618
2,111,0,vertical,vertical,null,null,null,1877.99,null,null,null,null,null,above,IBstimulus_absent,null,null,5595.315
2,111,1,horizontal,horizontal,null,null,null,1758.23,null,null,null,null,null,below,IBstimulus_absent,null,null,4862.21
2,111,2,vertical,vertical,null,null,null,1289.02,null,null,null,null,null,above,IBstimulus_absent,null,null,4173.38
2,111,3,horizontal,vertical,yes,blue,reportColor,1649.705,1732.365,1271.09,1854.28,2091.65,2925.025,above,IBstimulus_present,blue,right,14406.08
2,112,0,horizontal,horizontal,null,null,null,2455.09,null,null,null,null,null,below,IBstimulus_absent,null,null,8078.5
2,112,1,horizontal,horizontal,null,null,null,2002.985,null,null,null,null,null,above,IBstimulus_absent,null,null,13199.99
2,112,2,horizontal,horizontal,null,null,null,3169.025,null,null,null,null,null,below,IBstimulus_absent,null,null,7263.75
2,112,3,horizontal,horizontal,yes,blue,reportColor,3435.875,3359.61,3056.07,5299.745,3270.575,4788.41,above,IBstimulus_present,blue,left,31135.815
2,113,0,vertical,vertical,null,null,null,2801.29,null,null,null,null,null,above,IBstimulus_absent,null,null,8553.11
2,113,1,horizontal,horizontal,null,null,null,2139.145,null,null,null,null,null,above,IBstimulus_absent,null,null,6737.26
2,113,2,horizontal,horizontal,null,null,null,1770.985,null,null,null,null,null,above,IBstimulus_absent,null,null,5627.465
2,113,3,horizontal,horizontal,yes,red,reportColor,2114.39,6055.41,7283.73,9212.395,3943.25,5154.74,below,IBstimulus_present,red,right,36722.865
2,114,0,horizontal,horizontal,null,null,null,2666.445,null,null,null,null,null,above,IBstimulus_absent,null,null,7747.695
2,114,1,horizontal,horizontal,null,null,null,4666.005,null,null,null,null,null,above,IBstimulus_absent,null,null,10946.905
2,114,2,vertical,vertical,null,null,null,2675.305,null,null,null,null,null,below,IBstimulus_absent,null,null,8022.795
2,114,3,horizontal,horizontal,yes,red,reportColor,2052.7,3375.56,5041.11,4838.255,5195.965,3920.65,below,IBstimulus_present,red,right,28436.555
2,115,0,vertical,vertical,null,null,null,3576.735,null,null,null,null,null,below,IBstimulus_absent,null,null,12231.585
2,115,1,horizontal,horizontal,null,null,null,2634.475,null,null,null,null,null,below,IBstimulus_absent,null,null,7237.905
2,115,2,vertical,vertical,null,null,null,2206.22,null,null,null,null,null,above,IBstimulus_absent,null,null,5287.25
2,115,3,vertical,vertical,no,red,reportColor,2799.965,6569.05,12967.34,7507.635,4711.44,5833.785,below,IBstimulus_present,red,left,43942.105
2,116,0,horizontal,horizontal,null,null,null,1374.27,null,null,null,null,null,above,IBstimulus_absent,null,null,4680.14
2,116,1,vertical,vertical,null,null,null,1003.175,null,null,null,null,null,below,IBstimulus_absent,null,null,4326.055
2,116,2,horizontal,horizontal,null,null,null,957.64,null,null,null,null,null,above,IBstimulus_absent,null,null,4077.685
2,116,3,vertical,vertical,yes,blue,reportColor,997.275,1715.605,1402.95,1951.8,2257.765,2843.975,above,IBstimulus_present,blue,left,13928.01
2,117,0,vertical,vertical,null,null,null,4437.42,null,null,null,null,null,below,IBstimulus_absent,null,null,9355.27
2,117,1,horizontal,horizontal,null,null,null,2103.775,null,null,null,null,null,above,IBstimulus_absent,null,null,6914.675
2,117,2,vertical,vertical,null,null,null,1911.45,null,null,null,null,null,above,IBstimulus_absent,null,null,6238.35
2,117,3,horizontal,horizontal,no,blue,reportColor,2017.585,4726.375,6463.885,4158.975,3232.335,4231.775,above,IBstimulus_absent,null,null,29346.8
2,118,0,vertical,vertical,null,null,null,3972.01,null,null,null,null,null,above,IBstimulus_absent,null,null,8855.065
2,118,1,vertical,vertical,null,null,null,1934.15,null,null,null,null,null,below,IBstimulus_absent,null,null,9409.915
2,118,2,vertical,vertical,null,null,null,3174.16,null,null,null,null,null,above,IBstimulus_absent,null,null,6421.795
2,118,3,horizontal,horizontal,no,blue,reportColor,1873.58,5501.155,6136.425,8295.615,3951.6,7398.03,below,IBstimulus_present,red,right,36246.51
2,119,0,vertical,vertical,null,null,null,3547.935,null,null,null,null,null,below,IBstimulus_absent,null,null,8797.945
2,119,1,horizontal,horizontal,null,null,null,1923.66,null,null,null,null,null,below,IBstimulus_absent,null,null,7563.37
2,119,2,horizontal,horizontal,null,null,null,2101.085,null,null,null,null,null,below,IBstimulus_absent,null,null,5492.015
2,119,3,horizontal,horizontal,yes,red,reportColor,2256.72,5994.635,10810.89,4734.565,2863.35,6232.215,above,IBstimulus_absent,null,null,38064.25
2,120,0,vertical,vertical,null,null,null,3161.825,null,null,null,null,null,above,IBstimulus_absent,null,null,14465.855
2,120,1,horizontal,horizontal,null,null,null,1769.89,null,null,null,null,null,below,IBstimulus_absent,null,null,5770.29
2,120,2,horizontal,horizontal,null,null,null,2599.975,null,null,null,null,null,below,IBstimulus_absent,null,null,5733.755
2,120,3,horizontal,horizontal,no,blue,reportColor,1925.885,5752.485,6527.74,3088.29,4615.64,4711.905,below,IBstimulus_absent,null,null,30655.7
2,121,0,horizontal,horizontal,null,null,null,3695.76,null,null,null,null,null,above,IBstimulus_absent,null,null,12272.225
2,121,1,vertical,vertical,null,null,null,3041.43,null,null,null,null,null,below,IBstimulus_absent,null,null,6876.015
2,121,2,vertical,vertical,null,null,null,1876.155,null,null,null,null,null,above,IBstimulus_absent,null,null,5565.3
2,121,3,horizontal,horizontal,no,blue,reportColor,2508.94,4440.235,10302.86,5016.03,4031.345,5287.15,above,IBstimulus_absent,null,null,35088.185
2,122,0,horizontal,vertical,null,null,null,3196.855,null,null,null,null,null,above,IBstimulus_absent,null,null,11616.35
2,122,1,vertical,vertical,null,null,null,1142.78,null,null,null,null,null,below,IBstimulus_absent,null,null,4764.06
2,122,2,vertical,vertical,null,null,null,1281.575,null,null,null,null,null,below,IBstimulus_absent,null,null,4110.12
2,122,3,horizontal,horizontal,no,red,reportColor,1822.695,3566.725,7957.77,3456.7,4125.98,3182.745,below,IBstimulus_present,red,right,27120.58
2,123,0,vertical,vertical,null,null,null,4498.735,null,null,null,null,null,above,IBstimulus_absent,null,null,11597.735
2,123,1,vertical,horizontal,null,null,null,2300.875,null,null,null,null,null,below,IBstimulus_absent,null,null,7693.4
2,123,2,horizontal,horizontal,null,null,null,2839.485,null,null,null,null,null,below,IBstimulus_absent,null,null,9063.035
2,123,3,vertical,vertical,no,blue,reportColor,2151.62,3175.735,7519.52,3295.87,3263.545,4591.845,above,IBstimulus_absent,null,null,29174.56
2,124,0,vertical,vertical,null,null,null,4377.625,null,null,null,null,null,below,IBstimulus_absent,null,null,9079.995
2,124,1,vertical,vertical,null,null,null,3720.77,null,null,null,null,null,below,IBstimulus_absent,null,null,7870.445
2,124,2,vertical,vertical,null,null,null,3595.705,null,null,null,null,null,above,IBstimulus_absent,null,null,7457.325
2,124,3,vertical,vertical,no,red,reportColor,2121.375,3555.925,4779.575,7339.905,3156.83,3615.185,below,IBstimulus_absent,null,null,28317.37
2,125,0,vertical,vertical,null,null,null,2162.995,null,null,null,null,null,above,IBstimulus_absent,null,null,12773.68
2,125,1,vertical,vertical,null,null,null,1670.94,null,null,null,null,null,below,IBstimulus_absent,null,null,10572.64
2,125,2,horizontal,horizontal,null,null,null,2410.335,null,null,null,null,null,below,IBstimulus_absent,null,null,6188.67
2,125,3,vertical,vertical,yes,red,reportColor,1523.13,4684.225,6831.825,4888.33,4645.59,5888.03,above,IBstimulus_present,red,right,32470.905
2,126,0,horizontal,horizontal,null,null,null,2726.19,null,null,null,null,null,above,IBstimulus_absent,null,null,10682.885
2,126,1,vertical,vertical,null,null,null,1794.755,null,null,null,null,null,below,IBstimulus_absent,null,null,10286.345
2,126,2,vertical,vertical,null,null,null,1263.265,null,null,null,null,null,below,IBstimulus_absent,null,null,9825.005
2,126,3,vertical,vertical,yes,blue,reportColor,4309.475,2781.605,5113.465,4896.78,2692.205,3756.465,above,IBstimulus_present,blue,left,26517.11
2,127,0,horizontal,vertical,null,null,null,3742.26,null,null,null,null,null,below,IBstimulus_absent,null,null,10346.605
2,127,1,horizontal,horizontal,null,null,null,2497.86,null,null,null,null,null,below,IBstimulus_absent,null,null,8437.61
2,127,2,vertical,vertical,null,null,null,3013.73,null,null,null,null,null,above,IBstimulus_absent,null,null,7049.395
2,127,3,vertical,vertical,no,blue,reportColor,3091.965,47225.24,8263.63,6819.59,4722.2,5265.76,below,IBstimulus_present,blue,left,79521.64
2,128,0,vertical,horizontal,null,null,null,3286.8,null,null,null,null,null,above,IBstimulus_absent,null,null,17804.32
2,128,1,vertical,vertical,null,null,null,2145.445,null,null,null,null,null,below,IBstimulus_absent,null,null,6552.38
2,128,2,vertical,vertical,null,null,null,4196.54,null,null,null,null,null,below,IBstimulus_absent,null,null,7299.35
2,128,3,vertical,horizontal,no,blue,reportColor,2666.15,5950.805,8189.65,4092.035,4413.765,8319.18,below,IBstimulus_present,red,right,37305.265
2,129,0,horizontal,horizontal,null,null,null,2916.545,null,null,null,null,null,above,IBstimulus_absent,null,null,16448.74
2,129,1,vertical,vertical,null,null,null,1895.36,null,null,null,null,null,below,IBstimulus_absent,null,null,6058.32
2,129,2,vertical,vertical,null,null,null,1810.445,null,null,null,null,null,above,IBstimulus_absent,null,null,5379.51
2,129,3,horizontal,horizontal,no,blue,reportColor,2739.695,5061.45,11043.57,7480.415,4437.23,6383.91,above,IBstimulus_present,blue,left,41368.08
2,130,0,horizontal,horizontal,null,null,null,5236.495,null,null,null,null,null,above,IBstimulus_absent,null,null,12069.56
2,130,1,vertical,vertical,null,null,null,3356.92,null,null,null,null,null,above,IBstimulus_absent,null,null,7227.3
2,130,2,horizontal,horizontal,null,null,null,2762.195,null,null,null,null,null,above,IBstimulus_absent,null,null,6588.3
2,130,3,vertical,vertical,no,blue,reportColor,3290.07,5621.39,11094.425,6024.995,3905.71,5066.22,above,IBstimulus_absent,null,null,38630.035
2,131,0,vertical,vertical,null,null,null,5228.045,null,null,null,null,null,above,IBstimulus_absent,null,null,14437.085
2,131,1,vertical,vertical,null,null,null,1963.35,null,null,null,null,null,above,IBstimulus_absent,null,null,6485.71
2,131,2,vertical,vertical,null,null,null,2537.025,null,null,null,null,null,below,IBstimulus_absent,null,null,6940.045
2,131,3,horizontal,horizontal,no,red,reportColor,1675.955,6045.155,8944.215,4795.535,3798.2,11792.45,below,IBstimulus_present,blue,right,40048.315
2,132,0,vertical,vertical,null,null,null,3107.27,null,null,null,null,null,below,IBstimulus_absent,null,null,8109.02
2,132,1,horizontal,horizontal,null,null,null,3503.9,null,null,null,null,null,below,IBstimulus_absent,null,null,12199.8
2,132,2,horizontal,horizontal,null,null,null,1170.29,null,null,null,null,null,below,IBstimulus_absent,null,null,5083.755
2,132,3,horizontal,horizontal,no,blue,reportColor,1152.515,4871.57,6938.565,3626.41,3440.205,8014.675,above,IBstimulus_absent,null,null,31321.61
2,133,0,horizontal,horizontal,null,null,null,3718.625,null,null,null,null,null,above,IBstimulus_absent,null,null,13928.68
2,133,1,horizontal,horizontal,null,null,null,3774.365,null,null,null,null,null,below,IBstimulus_absent,null,null,7833.745
2,133,2,vertical,vertical,null,null,null,3862.67,null,null,null,null,null,below,IBstimulus_absent,null,null,8591.04
2,133,3,horizontal,horizontal,yes,red,reportColor,3593.67,7883.935,2631.365,10685.68,6486.71,10255.955,below,IBstimulus_present,red,right,46435.02
2,134,0,horizontal,horizontal,null,null,null,2231.305,null,null,null,null,null,below,IBstimulus_absent,null,null,7446.97
2,134,1,vertical,vertical,null,null,null,2250.64,null,null,null,null,null,below,IBstimulus_absent,null,null,5614.64
2,134,2,horizontal,horizontal,null,null,null,3995.44,null,null,null,null,null,below,IBstimulus_absent,null,null,8710.505
2,134,3,vertical,vertical,no,blue,reportColor,1695.225,5484.31,7288.445,7754.185,5627.385,7776.165,above,IBstimulus_present,blue,right,40332.695
2,135,0,horizontal,horizontal,null,null,null,6041.055,null,null,null,null,null,above,IBstimulus_absent,null,null,32428.13
2,135,1,vertical,vertical,null,null,null,3036.09,null,null,null,null,null,above,IBstimulus_absent,null,null,8563.11
2,135,2,vertical,vertical,null,null,null,2752.38,null,null,null,null,null,below,IBstimulus_absent,null,null,6577.89
2,135,3,horizontal,horizontal,yes,red,reportColor,3675.84,5499.695,1844.14,7774.51,5132.33,6556.06,below,IBstimulus_present,red,right,33994.81
2,136,0,vertical,horizontal,null,null,null,8218.555,null,null,null,null,null,above,IBstimulus_absent,null,null,20108.045
2,136,1,horizontal,horizontal,null,null,null,5869.135,null,null,null,null,null,above,IBstimulus_absent,null,null,12936.985
2,136,2,vertical,vertical,null,null,null,5721.025,null,null,null,null,null,above,IBstimulus_absent,null,null,11593.59
2,136,3,vertical,horizontal,no,blue,reportColor,5012.475,8428.46,20533.32,11670.12,10094.35,9842.24,above,IBstimulus_absent,null,null,71971.375
2,137,0,vertical,vertical,null,null,null,2112.475,null,null,null,null,null,below,IBstimulus_absent,null,null,9484.955
2,137,1,vertical,vertical,null,null,null,1334.355,null,null,null,null,null,above,IBstimulus_absent,null,null,9496.545
2,137,2,vertical,vertical,null,null,null,1327.755,null,null,null,null,null,above,IBstimulus_absent,null,null,4278.905
2,137,3,horizontal,horizontal,yes,blue,reportColor,2820.225,2805.595,2991.795,6431.685,2894.785,4007.825,below,IBstimulus_present,blue,left,24577.85
2,138,0,horizontal,horizontal,null,null,null,2907.099999,null,null,null,null,null,above,IBstimulus_absent,null,null,8129.07
2,138,1,vertical,vertical,null,null,null,2083.04,null,null,null,null,null,above,IBstimulus_absent,null,null,10920.71
2,138,2,horizontal,horizontal,null,null,null,1836.420001,null,null,null,null,null,below,IBstimulus_absent,null,null,5399.77
2,138,3,vertical,vertical,yes,red,reportColor,1672.16,6113.305001,2001.22,5287.475,2923.295,4566.88,above,IBstimulus_present,red,left,25770.86
2,139,0,vertical,horizontal,null,null,null,3759.14,null,null,null,null,null,below,IBstimulus_absent,null,null,11666.31
2,139,1,vertical,vertical,null,null,null,4913.64,null,null,null,null,null,above,IBstimulus_absent,null,null,9942.815
2,139,2,horizontal,vertical,null,null,null,3400.835,null,null,null,null,null,below,IBstimulus_absent,null,null,6743.109999
2,139,3,horizontal,horizontal,no,blue,reportColor,3364.630001,5864.31,6945.165001,8601.35,12375.645,11706.875,below,IBstimulus_present,red,right,52433.675
2,140,0,vertical,horizontal,null,null,null,3990.48,null,null,null,null,null,above,IBstimulus_absent,null,null,10617.475
2,140,1,horizontal,horizontal,null,null,null,2185.96,null,null,null,null,null,above,IBstimulus_absent,null,null,7091.31
2,140,2,vertical,vertical,null,null,null,2311.585,null,null,null,null,null,below,IBstimulus_absent,null,null,6042.5
2,140,3,vertical,vertical,yes,blue,reportColor,2060.735,7800.575,2236.73,5999.41,4659.845,5887.865,above,IBstimulus_present,blue,left,37252.375
2,141,0,vertical,vertical,null,null,null,3103.025,null,null,null,null,null,below,IBstimulus_absent,null,null,8675.415
2,141,1,horizontal,horizontal,null,null,null,2075.815,null,null,null,null,null,above,IBstimulus_absent,null,null,6235.545
2,141,2,vertical,vertical,null,null,null,1705.17,null,null,null,null,null,below,IBstimulus_absent,null,null,5111.635
2,141,3,horizontal,horizontal,yes,blue,reportColor,3994.03,4392.545,2559.685,2494.975,3128.5,3448.165,below,IBstimulus_present,blue,left,23991.35
2,142,0,vertical,vertical,null,null,null,2800,null,null,null,null,null,below,IBstimulus_absent,null,null,7438
2,142,1,vertical,vertical,null,null,null,1779,null,null,null,null,null,above,IBstimulus_absent,null,null,8364
2,142,2,horizontal,horizontal,null,null,null,1843,null,null,null,null,null,above,IBstimulus_absent,null,null,5333
2,142,3,horizontal,horizontal,no,blue,reportColor,1622,4489,7007,7451,6657,5120,below,IBstimulus_absent,null,null,35412
2,143,0,horizontal,horizontal,null,null,null,5065,null,null,null,null,null,below,IBstimulus_absent,null,null,14407
2,143,1,horizontal,horizontal,null,null,null,4544,null,null,null,null,null,above,IBstimulus_absent,null,null,16142
2,143,2,horizontal,horizontal,null,null,null,3504,null,null,null,null,null,above,IBstimulus_absent,null,null,8427
2,143,3,vertical,horizontal,yes,red,reportColor,9511,4055,28361,9705,3429,11545,above,IBstimulus_present,red,left,72317
2,144,0,vertical,vertical,null,null,null,3632.41,null,null,null,null,null,below,IBstimulus_absent,null,null,11869.675
2,144,1,vertical,vertical,null,null,null,2249.5,null,null,null,null,null,below,IBstimulus_absent,null,null,18298
2,144,2,vertical,vertical,null,null,null,3108.135,null,null,null,null,null,below,IBstimulus_absent,null,null,7166.845
2,144,3,horizontal,horizontal,yes,blue,reportColor,2797.825,3578.3,5548.07,6820.83,3549.2,6835.3,above,IBstimulus_present,blue,left,33063.96
2,145,0,horizontal,horizontal,null,null,null,10774.31,null,null,null,null,null,above,IBstimulus_absent,null,null,125351.365
2,145,1,vertical,vertical,null,null,null,3935.86,null,null,null,null,null,below,IBstimulus_absent,null,null,10085.44
2,145,2,vertical,vertical,null,null,null,3587.22,null,null,null,null,null,below,IBstimulus_absent,null,null,8524.94
2,145,3,horizontal,horizontal,no,blue,reportColor,15779.18,8671.475,19242.25,12267.77,8512.84,9956.81,below,IBstimulus_absent,null,null,82688.68
2,146,0,horizontal,vertical,null,null,null,6337.035,null,null,null,null,null,below,IBstimulus_absent,null,null,53219.65
2,146,1,vertical,horizontal,null,null,null,4066.195,null,null,null,null,null,below,IBstimulus_absent,null,null,10742.09
2,146,2,horizontal,vertical,null,null,null,6588.56,null,null,null,null,null,below,IBstimulus_absent,null,null,13472.085
2,146,3,horizontal,vertical,no,blue,reportColor,47285.125,11633.73,12793.445,21700.345,9384.205,11648.74,above,IBstimulus_present,red,right,125870.585
2,147,0,vertical,vertical,null,null,null,3659.365,null,null,null,null,null,above,IBstimulus_absent,null,null,9315.66
2,147,1,horizontal,horizontal,null,null,null,2076.55,null,null,null,null,null,above,IBstimulus_absent,null,null,7272.635
2,147,2,vertical,vertical,null,null,null,2132.655,null,null,null,null,null,above,IBstimulus_absent,null,null,7224.175
2,147,3,horizontal,horizontal,no,blue,reportColor,1482.96,5758.11,8813.925,4436.015,3755.15,5310.085,above,IBstimulus_absent,null,null,32706.635
2,148,0,horizontal,horizontal,null,null,null,6906.465,null,null,null,null,null,above,IBstimulus_absent,null,null,25146.12
2,148,1,horizontal,vertical,null,null,null,3320.73,null,null,null,null,null,below,IBstimulus_absent,null,null,7856.075
2,148,2,vertical,vertical,null,null,null,2503.215,null,null,null,null,null,above,IBstimulus_absent,null,null,7706.435
2,148,3,vertical,vertical,yes,red,reportColor,3279.915,4830.845,7229.64,14921.295,13555.055,9417.655,above,IBstimulus_present,red,right,60741.705
2,149,0,horizontal,horizontal,null,null,null,5939.725,null,null,null,null,null,below,IBstimulus_absent,null,null,23724.545
2,149,1,horizontal,horizontal,null,null,null,2016.59,null,null,null,null,null,above,IBstimulus_absent,null,null,6091.61
2,149,2,vertical,vertical,null,null,null,3320.755,null,null,null,null,null,below,IBstimulus_absent,null,null,6746.59
2,149,3,horizontal,horizontal,yes,blue,reportColor,2641.8,8579.63,3745.25,8803.295,3927.27,5558.31,below,IBstimulus_present,blue,right,36988.125
2,150,0,horizontal,horizontal,null,null,null,4636.645,null,null,null,null,null,above,IBstimulus_absent,null,null,10588.9
2,150,1,horizontal,horizontal,null,null,null,3148.365,null,null,null,null,null,above,IBstimulus_absent,null,null,11318.98
2,150,2,horizontal,vertical,null,null,null,2770.665,null,null,null,null,null,above,IBstimulus_absent,null,null,7243.92
2,150,3,vertical,vertical,no,red,reportColor,3858.155,6253.88,6925.49,5439.95,5608.32,18501.91,below,IBstimulus_present,red,right,51013.5
2,151,0,vertical,vertical,null,null,null,1997.27,null,null,null,null,null,below,IBstimulus_absent,null,null,7257.815
2,151,1,horizontal,horizontal,null,null,null,1386.51,null,null,null,null,null,below,IBstimulus_absent,null,null,5486.3
2,151,2,vertical,vertical,null,null,null,1780.645,null,null,null,null,null,above,IBstimulus_absent,null,null,4659.245
2,151,3,horizontal,horizontal,yes,blue,reportColor,988.58,3017.025,3448.39,4564.875,3378.905,3335.33,above,IBstimulus_present,blue,right,21494.915
2,152,0,horizontal,horizontal,null,null,null,4530.58,null,null,null,null,null,below,IBstimulus_absent,null,null,11717.32
2,152,1,horizontal,horizontal,null,null,null,2609.3,null,null,null,null,null,below,IBstimulus_absent,null,null,8904.435
2,152,2,vertical,vertical,null,null,null,2811.405,null,null,null,null,null,above,IBstimulus_absent,null,null,6657.575
2,152,3,horizontal,horizontal,no,blue,reportColor,2009.19,6532.4,11595.035,10856.55,4888.555,9118.6,above,IBstimulus_present,blue,right,49404.615
2,153,0,horizontal,horizontal,null,null,null,4068,null,null,null,null,null,below,IBstimulus_absent,null,null,9194
2,153,1,horizontal,horizontal,null,null,null,2728,null,null,null,null,null,below,IBstimulus_absent,null,null,7462
2,153,2,vertical,vertical,null,null,null,2571,null,null,null,null,null,above,IBstimulus_absent,null,null,5608
2,153,3,horizontal,horizontal,yes,red,reportColor,2999,4824,5329,5841,3122,5857,below,IBstimulus_present,red,right,30733
2,154,0,vertical,vertical,null,null,null,8762.39,null,null,null,null,null,above,IBstimulus_absent,null,null,15292.325
2,154,1,vertical,vertical,null,null,null,5463.66,null,null,null,null,null,above,IBstimulus_absent,null,null,22636.155
2,154,2,horizontal,horizontal,null,null,null,5479.555,null,null,null,null,null,above,IBstimulus_absent,null,null,10139.76
2,154,3,vertical,vertical,yes,blue,reportColor,4924.51,6475.04,15837.885,9775.465,9082.975,7551.705,below,IBstimulus_present,blue,right,57910.375
2,155,0,horizontal,horizontal,null,null,null,3456.785,null,null,null,null,null,above,IBstimulus_absent,null,null,11324.335
2,155,1,vertical,vertical,null,null,null,2412.48,null,null,null,null,null,above,IBstimulus_absent,null,null,7978.39
2,155,2,vertical,vertical,null,null,null,2422.395,null,null,null,null,null,above,IBstimulus_absent,null,null,6305.08
2,155,3,vertical,vertical,yes,red,reportColor,2043.06,3405.295,6427.24,6144.645,4684.1,11937.37,below,IBstimulus_present,red,left,38452.625
2,156,0,horizontal,horizontal,null,null,null,5483.45,null,null,null,null,null,below,IBstimulus_absent,null,null,17100.515
2,156,1,vertical,vertical,null,null,null,4221.41,null,null,null,null,null,above,IBstimulus_absent,null,null,9412
2,156,2,horizontal,horizontal,null,null,null,2941.7,null,null,null,null,null,above,IBstimulus_absent,null,null,7730.845
2,156,3,vertical,vertical,no,blue,reportColor,3021.925,8038.995,11987.105,5422.595,5330.33,6708.17,above,IBstimulus_absent,null,null,45607.635
2,157,0,vertical,vertical,null,null,null,4462,null,null,null,null,null,above,IBstimulus_absent,null,null,13610
2,157,1,vertical,vertical,null,null,null,2644,null,null,null,null,null,below,IBstimulus_absent,null,null,11634
2,157,2,vertical,vertical,null,null,null,1506,null,null,null,null,null,below,IBstimulus_absent,null,null,4715
2,157,3,horizontal,horizontal,no,red,reportColor,1964,6966,10232,19504,3766,5437,below,IBstimulus_present,red,left,51286
2,158,0,horizontal,horizontal,null,null,null,2205.91,null,null,null,null,null,below,IBstimulus_absent,null,null,7343.25
2,158,1,horizontal,horizontal,null,null,null,1108.07,null,null,null,null,null,above,IBstimulus_absent,null,null,3833.455
2,158,2,horizontal,horizontal,null,null,null,2310.15,null,null,null,null,null,above,IBstimulus_absent,null,null,8584.12
2,158,3,vertical,vertical,yes,red,reportColor,1491.16,1785.86,2139.215,2625.165,2917.745,2516.13,above,IBstimulus_present,red,left,17139.495
2,159,0,horizontal,vertical,null,null,null,4561.14,null,null,null,null,null,above,IBstimulus_absent,null,null,31235.435
2,159,1,vertical,vertical,null,null,null,3371.395,null,null,null,null,null,below,IBstimulus_absent,null,null,7982.595
2,159,2,vertical,vertical,null,null,null,3517.57,null,null,null,null,null,below,IBstimulus_absent,null,null,7372.455
2,159,3,vertical,vertical,no,blue,reportColor,2394.1,7721.91,11903.05,5633.71,3789.285,4986.74,above,IBstimulus_present,blue,right,40938.81
2,160,0,vertical,vertical,null,null,null,3818.13,null,null,null,null,null,below,IBstimulus_absent,null,null,9621.91
2,160,1,vertical,vertical,null,null,null,2736.71,null,null,null,null,null,above,IBstimulus_absent,null,null,13865.81
2,160,2,horizontal,horizontal,null,null,null,2224.745,null,null,null,null,null,below,IBstimulus_absent,null,null,5403.32
2,160,3,vertical,vertical,no,red,reportColor,3363.39,5424.085,5372.5,5516.335,4121.41,4215.045,below,IBstimulus_absent,null,null,31456.065
2,161,0,horizontal,horizontal,null,null,null,5264.345,null,null,null,null,null,below,IBstimulus_absent,null,null,10493.475
2,161,1,vertical,vertical,null,null,null,1731.545,null,null,null,null,null,below,IBstimulus_absent,null,null,13644.265
2,161,2,vertical,vertical,null,null,null,1623.025,null,null,null,null,null,below,IBstimulus_absent,null,null,6110.495
2,161,3,vertical,vertical,yes,red,reportColor,5274.86,5403.06,36567.615,5784.815,3693.11,4430.11,below,IBstimulus_present,blue,right,64873.485
2,162,0,horizontal,horizontal,null,null,null,3898.01,null,null,null,null,null,below,IBstimulus_absent,null,null,8598.31
2,162,1,horizontal,horizontal,null,null,null,2305.5,null,null,null,null,null,below,IBstimulus_absent,null,null,13713.525
2,162,2,vertical,vertical,null,null,null,1642.7,null,null,null,null,null,below,IBstimulus_absent,null,null,5152.885
2,162,3,horizontal,horizontal,yes,blue,reportColor,3048.98,2887.19,1606.575,2877.845,1935.425,2502.25,above,IBstimulus_present,blue,left,17883.835
2,163,0,horizontal,horizontal,null,null,null,3577.855,null,null,null,null,null,above,IBstimulus_absent,null,null,15598.275
2,163,1,vertical,vertical,null,null,null,3058.56,null,null,null,null,null,below,IBstimulus_absent,null,null,8697.23
2,163,2,horizontal,horizontal,null,null,null,2948.4,null,null,null,null,null,below,IBstimulus_absent,null,null,8124.65
2,163,3,horizontal,horizontal,no,blue,reportColor,2810.435,5547.88,14570.965,9323.545,4519.8,5167.81,above,IBstimulus_present,red,right,45421.115
2,164,0,horizontal,horizontal,null,null,null,6906.465,null,null,null,null,null,above,IBstimulus_absent,null,null,25146.12
2,164,1,horizontal,vertical,null,null,null,3320.73,null,null,null,null,null,below,IBstimulus_absent,null,null,7856.075
2,164,2,vertical,vertical,null,null,null,2503.215,null,null,null,null,null,above,IBstimulus_absent,null,null,7706.435
2,164,3,vertical,vertical,yes,red,reportColor,3279.915,4830.845,7229.64,14921.295,13555.055,9417.655,above,IBstimulus_present,red,right,60741.705
2,165,0,vertical,vertical,null,null,null,2907.5,null,null,null,null,null,below,IBstimulus_absent,null,null,9382.925
2,165,1,horizontal,horizontal,null,null,null,1657.785,null,null,null,null,null,above,IBstimulus_absent,null,null,6101.71
2,165,2,horizontal,horizontal,null,null,null,1430.635,null,null,null,null,null,below,IBstimulus_absent,null,null,4643.305
2,165,3,horizontal,horizontal,no,blue,reportColor,1417.64,6379.71,7415.47,8671.88,4483.765,6525.085,above,IBstimulus_absent,null,null,38307.35
2,166,0,vertical,vertical,null,null,null,1997.27,null,null,null,null,null,below,IBstimulus_absent,null,null,7257.815
2,166,1,horizontal,horizontal,null,null,null,1386.51,null,null,null,null,null,below,IBstimulus_absent,null,null,5486.3
2,166,2,vertical,vertical,null,null,null,1780.645,null,null,null,null,null,above,IBstimulus_absent,null,null,4659.245
2,166,3,horizontal,horizontal,yes,blue,reportColor,988.58,3017.025,3448.39,4564.875,3378.905,3335.33,above,IBstimulus_present,blue,right,21494.915
2,167,0,vertical,vertical,null,null,null,2902.375,null,null,null,null,null,above,IBstimulus_absent,null,null,10973.665
2,167,1,horizontal,horizontal,null,null,null,1778.51,null,null,null,null,null,above,IBstimulus_absent,null,null,5470.405
2,167,2,horizontal,horizontal,null,null,null,1724.525,null,null,null,null,null,above,IBstimulus_absent,null,null,4759.375
2,167,3,horizontal,horizontal,yes,red,reportColor,1754.65,4015.77,2847.4,7247.495,5808.27,5087.855,above,IBstimulus_present,red,right,29754.695
2,168,0,vertical,vertical,null,null,null,3133,null,null,null,null,null,below,IBstimulus_absent,null,null,12193
2,168,1,vertical,vertical,null,null,null,3268,null,null,null,null,null,above,IBstimulus_absent,null,null,13216
2,168,2,horizontal,horizontal,null,null,null,1923,null,null,null,null,null,above,IBstimulus_absent,null,null,6173
2,168,3,horizontal,horizontal,no,blue,reportColor,2330,5045,7249,4636,3969,4681,below,IBstimulus_absent,null,null,31501
2,169,0,horizontal,horizontal,null,null,null,4928.98,null,null,null,null,null,below,IBstimulus_absent,null,null,10918.865
2,169,1,horizontal,horizontal,null,null,null,3302.465,null,null,null,null,null,above,IBstimulus_absent,null,null,10053.635
2,169,2,horizontal,vertical,null,null,null,2936.435,null,null,null,null,null,below,IBstimulus_absent,null,null,10414.255
2,169,3,horizontal,horizontal,yes,blue,reportColor,2311.1,4909.07,2348.525,5785.75,4315.135,5422.415,above,IBstimulus_present,blue,right,29527.09
2,170,0,vertical,vertical,null,null,null,6222.78,null,null,null,null,null,below,IBstimulus_absent,null,null,11450.13
2,170,1,horizontal,horizontal,null,null,null,2026.465,null,null,null,null,null,below,IBstimulus_absent,null,null,6283.38
2,170,2,vertical,vertical,null,null,null,1559.495,null,null,null,null,null,above,IBstimulus_absent,null,null,5145.395
2,170,3,vertical,vertical,yes,red,reportColor,1898.385,3926.98,5179.42,4675.51,2735.465,3466.41,above,IBstimulus_present,blue,left,25302.38
2,171,0,horizontal,horizontal,null,null,null,3760.975,null,null,null,null,null,above,IBstimulus_absent,null,null,12327.125
2,171,1,horizontal,vertical,null,null,null,1157.625,null,null,null,null,null,above,IBstimulus_absent,null,null,5078.265
2,171,2,horizontal,horizontal,null,null,null,1266.81,null,null,null,null,null,below,IBstimulus_absent,null,null,5177.82
2,171,3,vertical,vertical,yes,blue,reportColor,2286.015,5003.68,3625.825,2497.575,2907.24,2811.705,below,IBstimulus_present,blue,left,23440.02
2,172,0,vertical,vertical,null,null,null,3426,null,null,null,null,null,above,IBstimulus_absent,null,null,10590
2,172,1,vertical,vertical,null,null,null,1527,null,null,null,null,null,above,IBstimulus_absent,null,null,7054
2,172,2,vertical,vertical,null,null,null,1984,null,null,null,null,null,above,IBstimulus_absent,null,null,6141
2,172,3,horizontal,horizontal,yes,red,reportColor,2331,3274,2498,6260,3659,4562,below,IBstimulus_present,red,right,26421
2,173,0,horizontal,horizontal,null,null,null,4544.2,null,null,null,null,null,above,IBstimulus_absent,null,null,7888.35
2,173,1,horizontal,horizontal,null,null,null,1207.17,null,null,null,null,null,above,IBstimulus_absent,null,null,3994.04
2,173,2,vertical,vertical,null,null,null,1491.27,null,null,null,null,null,below,IBstimulus_absent,null,null,4383.31
2,173,3,vertical,vertical,yes,red,reportColor,1118.09,1930.695,1155.985,2625.57,3036.965,3282.665,above,IBstimulus_present,red,left,15891.87
2,174,0,vertical,vertical,null,null,null,6783,null,null,null,null,null,above,IBstimulus_absent,null,null,21206
2,174,1,horizontal,vertical,null,null,null,5633,null,null,null,null,null,above,IBstimulus_absent,null,null,16964
2,174,2,vertical,vertical,null,null,null,3151,null,null,null,null,null,above,IBstimulus_absent,null,null,8197
2,174,3,vertical,vertical,no,blue,reportColor,4115,9819,16193,8341,4535,7175,below,IBstimulus_present,blue,left,55566
2,175,0,vertical,vertical,null,null,null,1674,null,null,null,null,null,below,IBstimulus_absent,null,null,14259
2,175,1,vertical,vertical,null,null,null,2053,null,null,null,null,null,below,IBstimulus_absent,null,null,5259
2,175,2,horizontal,horizontal,null,null,null,1859,null,null,null,null,null,below,IBstimulus_absent,null,null,4853
2,175,3,vertical,vertical,no,blue,reportColor,1287,5101,7501,7219,3229,4318,above,IBstimulus_absent,null,null,34310
2,176,0,vertical,vertical,null,null,null,5633.29,null,null,null,null,null,below,IBstimulus_absent,null,null,13031.445
2,176,1,vertical,vertical,null,null,null,4592.025,null,null,null,null,null,above,IBstimulus_absent,null,null,8880.21
2,176,2,vertical,vertical,null,null,null,2284.24,null,null,null,null,null,above,IBstimulus_absent,null,null,6282.78
2,176,3,vertical,vertical,no,blue,reportColor,2874.48,13184.075,17349.455,6955.24,6599.63,4973.55,below,IBstimulus_absent,null,null,57174.63
2,177,0,vertical,vertical,null,null,null,3988,null,null,null,null,null,below,IBstimulus_absent,null,null,14393
2,177,1,vertical,vertical,null,null,null,1907,null,null,null,null,null,below,IBstimulus_absent,null,null,5882
2,177,2,vertical,vertical,null,null,null,2065,null,null,null,null,null,below,IBstimulus_absent,null,null,5057
2,177,3,vertical,horizontal,no,blue,reportColor,2948,5671,11064,6820,3964,5466,above,IBstimulus_absent,null,null,38833
2,178,0,vertical,vertical,null,null,null,892.82,null,null,null,null,null,above,IBstimulus_absent,null,null,3854.315
2,178,1,vertical,vertical,null,null,null,1553.05,null,null,null,null,null,above,IBstimulus_absent,null,null,4131.78
2,178,2,vertical,vertical,null,null,null,1467.38,null,null,null,null,null,below,IBstimulus_absent,null,null,4648.055
2,178,3,vertical,vertical,yes,blue,reportColor,1445.8,1303.19,1669.425,2123.635,3910.115,4956.805,above,IBstimulus_present,blue,right,18065.295
2,179,0,horizontal,horizontal,null,null,null,2778,null,null,null,null,null,above,IBstimulus_absent,null,null,9727
2,179,1,horizontal,horizontal,null,null,null,2069,null,null,null,null,null,above,IBstimulus_absent,null,null,9066
2,179,2,horizontal,horizontal,null,null,null,2106,null,null,null,null,null,above,IBstimulus_absent,null,null,5025
2,179,3,horizontal,horizontal,yes,blue,reportColor,2337,6105,5316,5900,3035,3941,below,IBstimulus_present,blue,right,29616
2,180,0,horizontal,horizontal,null,null,null,4460.065,null,null,null,null,null,below,IBstimulus_absent,null,null,9576.315
2,180,1,vertical,vertical,null,null,null,2419.225,null,null,null,null,null,above,IBstimulus_absent,null,null,9053.335
2,180,2,horizontal,horizontal,null,null,null,2129.43,null,null,null,null,null,below,IBstimulus_absent,null,null,5824.58
2,180,3,vertical,vertical,no,red,reportColor,2983.955,4790.825,7503.76,3811.83,3519.735,4446.25,above,IBstimulus_present,red,left,30334.495
2,181,0,vertical,vertical,null,null,null,2508.795,null,null,null,null,null,below,IBstimulus_absent,null,null,8520.64
2,181,1,vertical,vertical,null,null,null,2090.19,null,null,null,null,null,above,IBstimulus_absent,null,null,6020.215
2,181,2,horizontal,horizontal,null,null,null,1475.745,null,null,null,null,null,above,IBstimulus_absent,null,null,5170.715
2,181,3,horizontal,horizontal,no,blue,reportColor,1460.89,3401.185,7273.625,5595.4,2501.025,4890.575,above,IBstimulus_absent,null,null,28888.14
2,182,0,horizontal,horizontal,null,null,null,2716.63,null,null,null,null,null,above,IBstimulus_absent,null,null,7034.885
2,182,1,vertical,vertical,null,null,null,2104.82,null,null,null,null,null,below,IBstimulus_absent,null,null,7326.535
2,182,2,horizontal,horizontal,null,null,null,1340.07,null,null,null,null,null,below,IBstimulus_absent,null,null,4099.66
2,182,3,horizontal,horizontal,no,blue,reportColor,1437.975,4196.74,4810.98,3398.72,4123.305,3569.145,below,IBstimulus_present,red,right,24328.42
2,183,0,vertical,vertical,null,null,null,2329.64,null,null,null,null,null,below,IBstimulus_absent,null,null,10922.85
2,183,1,vertical,vertical,null,null,null,2676.95,null,null,null,null,null,above,IBstimulus_absent,null,null,6758.825
2,183,2,vertical,vertical,null,null,null,2255.07,null,null,null,null,null,below,IBstimulus_absent,null,null,5559.2
2,183,3,vertical,vertical,yes,blue,reportColor,2932.415,3036.765,3550.6,4561.255,3372.595,4444.19,above,IBstimulus_present,blue,right,25493.395
2,184,0,horizontal,horizontal,null,null,null,5717.58,null,null,null,null,null,below,IBstimulus_absent,null,null,13268
2,184,1,horizontal,horizontal,null,null,null,3903.285,null,null,null,null,null,above,IBstimulus_absent,null,null,8234.605
2,184,2,horizontal,horizontal,null,null,null,3417.955,null,null,null,null,null,below,IBstimulus_absent,null,null,7733.345
2,184,3,vertical,vertical,yes,blue,reportColor,3115.075,4570.99,5884.395,5133.065,4034.245,6844.21,below,IBstimulus_present,blue,right,34025.31
2,185,0,vertical,vertical,null,null,null,3378.125,null,null,null,null,null,above,IBstimulus_absent,null,null,17403.62
2,185,1,vertical,vertical,null,null,null,2007.64,null,null,null,null,null,below,IBstimulus_absent,null,null,7640.025
2,185,2,horizontal,horizontal,null,null,null,1885.52,null,null,null,null,null,below,IBstimulus_absent,null,null,7142.025
2,185,3,horizontal,horizontal,yes,red,reportColor,4644.59,3943.39,4727.44,5671.455,5263.315,5416.18,below,IBstimulus_present,red,right,34660.175
2,186,0,vertical,vertical,null,null,null,12514.245,null,null,null,null,null,above,IBstimulus_absent,null,null,21512.365
2,186,1,horizontal,horizontal,null,null,null,3086.85,null,null,null,null,null,above,IBstimulus_absent,null,null,12597.315
2,186,2,horizontal,horizontal,null,null,null,2805.44,null,null,null,null,null,above,IBstimulus_absent,null,null,12753.505
2,186,3,horizontal,vertical,yes,red,reportColor,5903.48,5679.62,3960.87,5801.05,11859.075,8580.92,above,IBstimulus_present,red,right,48730.615
2,187,0,horizontal,horizontal,null,null,null,4544.2,null,null,null,null,null,above,IBstimulus_absent,null,null,7888.35
2,187,1,horizontal,horizontal,null,null,null,1207.17,null,null,null,null,null,above,IBstimulus_absent,null,null,3994.04
2,187,2,vertical,vertical,null,null,null,1491.27,null,null,null,null,null,below,IBstimulus_absent,null,null,4383.31
2,187,3,vertical,vertical,yes,red,reportColor,1118.09,1930.695,1155.985,2625.57,3036.965,3282.665,above,IBstimulus_present,red,left,15891.87
2,188,0,vertical,vertical,null,null,null,1750.92,null,null,null,null,null,above,IBstimulus_absent,null,null,6470.175
2,188,1,horizontal,horizontal,null,null,null,997.815,null,null,null,null,null,below,IBstimulus_absent,null,null,4370.645
2,188,2,horizontal,horizontal,null,null,null,1739.58,null,null,null,null,null,above,IBstimulus_absent,null,null,5241.155
2,188,3,vertical,vertical,yes,blue,reportColor,2829.365,1568.94,2228.045,4582.395,2125.18,2043.06,above,IBstimulus_present,blue,left,19034.51
2,189,0,vertical,horizontal,null,null,null,8175.93,null,null,null,null,null,above,IBstimulus_absent,null,null,15888.87
2,189,1,vertical,vertical,null,null,null,2150.29,null,null,null,null,null,above,IBstimulus_absent,null,null,7866.615
2,189,2,horizontal,horizontal,null,null,null,3012.945,null,null,null,null,null,below,IBstimulus_absent,null,null,6570.75
2,189,3,vertical,vertical,yes,blue,reportColor,2900.11,7241.885,5033.545,8447.8,4673.07,4029.925,above,IBstimulus_absent,null,null,35428.605
2,190,0,horizontal,horizontal,null,null,null,3169.05,null,null,null,null,null,below,IBstimulus_absent,null,null,6926.4
2,190,1,horizontal,horizontal,null,null,null,2036.455,null,null,null,null,null,below,IBstimulus_absent,null,null,5198.975
2,190,2,vertical,vertical,null,null,null,1890.94,null,null,null,null,null,below,IBstimulus_absent,null,null,4971.94
2,190,3,horizontal,vertical,yes,blue,reportColor,2318.99,5506.215,1724.67,8955.66,3414.615,3427.495,above,IBstimulus_present,blue,right,28912.2
2,191,0,vertical,vertical,null,null,null,2127.8,null,null,null,null,null,below,IBstimulus_absent,null,null,7163.17
2,191,1,vertical,vertical,null,null,null,1455.215,null,null,null,null,null,below,IBstimulus_absent,null,null,5756.485
2,191,2,vertical,vertical,null,null,null,1377.885,null,null,null,null,null,above,IBstimulus_absent,null,null,4639.295
2,191,3,horizontal,horizontal,no,red,reportColor,2707.785,2273.405,3769.205,3918.44,2808.18,3101.58,below,IBstimulus_absent,null,null,25203.77
2,192,0,vertical,vertical,null,null,null,2559.095,null,null,null,null,null,below,IBstimulus_absent,null,null,8443.225
2,192,1,horizontal,horizontal,null,null,null,2645.3,null,null,null,null,null,below,IBstimulus_absent,null,null,6632.66
2,192,2,horizontal,horizontal,null,null,null,1855.74,null,null,null,null,null,above,IBstimulus_absent,null,null,5308.56
2,192,3,vertical,vertical,no,blue,reportColor,2383.61,5705.415,6337.405,4574.44,3459.015,4399.245,below,IBstimulus_absent,null,null,29792.95
2,193,0,horizontal,horizontal,null,null,null,2753.11,null,null,null,null,null,above,IBstimulus_absent,null,null,8511.055
2,193,1,vertical,vertical,null,null,null,3992.275001,null,null,null,null,null,below,IBstimulus_absent,null,null,10525.905
2,193,2,horizontal,horizontal,null,null,null,2311.155,null,null,null,null,null,below,IBstimulus_absent,null,null,5466.67
2,193,3,vertical,vertical,yes,blue,reportColor,1803.315001,4120.71,5522.145,5227.57,6105.91,6323.525,above,IBstimulus_present,blue,right,32151.25
2,194,0,horizontal,horizontal,null,null,null,3865.88,null,null,null,null,null,below,IBstimulus_absent,null,null,9899.295
2,194,1,horizontal,horizontal,null,null,null,3553.45,null,null,null,null,null,above,IBstimulus_absent,null,null,7261.18
2,194,2,vertical,vertical,null,null,null,3118.005,null,null,null,null,null,above,IBstimulus_absent,null,null,22539.855
2,194,3,horizontal,horizontal,no,blue,reportColor,3196.155,6667.56,6613.525,5160.105,3114.5,7743.94,below,IBstimulus_absent,null,null,36811.715
2,195,0,horizontal,vertical,null,null,null,10082.26,null,null,null,null,null,above,IBstimulus_absent,null,null,22327.84
2,195,1,vertical,horizontal,null,null,null,3960.04,null,null,null,null,null,above,IBstimulus_absent,null,null,11142.145
2,195,2,vertical,vertical,null,null,null,3122.2,null,null,null,null,null,below,IBstimulus_absent,null,null,11694.4
2,195,3,horizontal,horizontal,no,blue,reportColor,4954.745,5179.06,9657.285,6497.165,5349.58,6343.675,below,IBstimulus_present,red,left,53026.605
2,196,0,horizontal,horizontal,null,null,null,3762,null,null,null,null,null,above,IBstimulus_absent,null,null,10313
2,196,1,horizontal,horizontal,null,null,null,1923,null,null,null,null,null,below,IBstimulus_absent,null,null,6429
2,196,2,vertical,vertical,null,null,null,2089,null,null,null,null,null,above,IBstimulus_absent,null,null,7034
2,196,3,vertical,vertical,yes,blue,reportColor,2784,4882,8598,6122,3483,4446,below,IBstimulus_present,blue,left,33655
2,197,0,horizontal,horizontal,null,null,null,6572,null,null,null,null,null,above,IBstimulus_absent,null,null,12719
2,197,1,vertical,vertical,null,null,null,3243,null,null,null,null,null,below,IBstimulus_absent,null,null,8368
2,197,2,vertical,vertical,null,null,null,2808,null,null,null,null,null,above,IBstimulus_absent,null,null,6781
2,197,3,horizontal,horizontal,yes,red,reportColor,7161,3216,5353,9986,7906,5007,above,IBstimulus_present,red,right,42295
2,198,0,vertical,vertical,null,null,null,4300,null,null,null,null,null,below,IBstimulus_absent,null,null,12300
2,198,1,vertical,vertical,null,null,null,1800,null,null,null,null,null,below,IBstimulus_absent,null,null,7100
2,198,2,vertical,vertical,null,null,null,1200,null,null,null,null,null,above,IBstimulus_absent,null,null,4200
2,198,3,vertical,vertical,no,red,reportColor,1000,4500,7800,6500,3100,5700,above,IBstimulus_absent,null,null,31700
2,199,0,vertical,vertical,null,null,null,3536,null,null,null,null,null,below,IBstimulus_absent,null,null,11628
2,199,1,horizontal,horizontal,null,null,null,1828,null,null,null,null,null,above,IBstimulus_absent,null,null,6115
2,199,2,horizontal,horizontal,null,null,null,1755,null,null,null,null,null,above,IBstimulus_absent,null,null,6139
2,199,3,vertical,vertical,no,blue,reportColor,1680,4537,7212,6590,3893,4503,above,IBstimulus_absent,null,null,32994
2,200,0,horizontal,horizontal,null,null,null,2205.91,null,null,null,null,null,below,IBstimulus_absent,null,null,7343.25
2,200,1,horizontal,horizontal,null,null,null,1108.07,null,null,null,null,null,above,IBstimulus_absent,null,null,3833.455
2,200,2,horizontal,horizontal,null,null,null,2310.15,null,null,null,null,null,above,IBstimulus_absent,null,null,8584.12
2,200,3,vertical,vertical,yes,red,reportColor,1491.16,1785.86,2139.215,2625.165,2917.745,2516.13,above,IBstimulus_present,red,left,17139.495
2,201,0,vertical,vertical,null,null,null,4664.01,null,null,null,null,null,below,IBstimulus_absent,null,null,13052.625
2,201,1,horizontal,horizontal,null,null,null,2112.215,null,null,null,null,null,above,IBstimulus_absent,null,null,10822.48
2,201,2,vertical,vertical,null,null,null,2444.055,null,null,null,null,null,above,IBstimulus_absent,null,null,7169.88
