batchNum,subjectID ,trialNum,longerArm,response_longerArm,response_yesNo,response_AFC,AFCquestion,RT_longerArm,RT_yesNo,RT_AFC,RT_IBfamiliarity,RT_age,RT_ishihara,aboveBelow,trialType,IBstimulus_color,IBstimulus_location,trialTime
3,0,0,vertical,vertical,null,null,null,3648.385,null,null,null,null,null,above,IBstimulus_absent,null,null,7951.385
3,0,1,vertical,vertical,null,null,null,1828.405,null,null,null,null,null,below,IBstimulus_absent,null,null,6251.935
3,0,2,vertical,vertical,null,null,null,1631.45,null,null,null,null,null,below,IBstimulus_absent,null,null,5007.09
3,0,3,horizontal,horizontal,yes,blue,reportColor,1994.45,3483.88,3046.89,2960.445,2155.92,3337.315,above,IBstimulus_present,blue,left,23908.955
3,1,0,horizontal,horizontal,null,null,null,3713.14,null,null,null,null,null,above,IBstimulus_absent,null,null,7627.025
3,1,1,vertical,vertical,null,null,null,2405.325,null,null,null,null,null,below,IBstimulus_absent,null,null,5972.015
3,1,2,vertical,vertical,null,null,null,3148.63,null,null,null,null,null,above,IBstimulus_absent,null,null,6290.6
3,1,3,vertical,vertical,yes,blue,reportColor,2223.1,2610.125,2184.46,4378.155,3196.52,3828.05,above,IBstimulus_present,blue,left,22094.715
3,2,0,vertical,vertical,null,null,null,5704.35,null,null,null,null,null,above,IBstimulus_absent,null,null,12267.27
3,2,1,vertical,vertical,null,null,null,4948.265,null,null,null,null,null,above,IBstimulus_absent,null,null,15295.005
3,2,2,vertical,vertical,null,null,null,3673.26,null,null,null,null,null,above,IBstimulus_absent,null,null,7561.09
3,2,3,horizontal,horizontal,no,blue,reportColor,2579.395,5537.235,11687.245,15093.81,4973.895,11490.235,above,IBstimulus_present,red,left,54813.88
3,3,0,horizontal,vertical,null,null,null,6075.35,null,null,null,null,null,above,IBstimulus_absent,null,null,17701.18
3,3,1,vertical,vertical,null,null,null,2753.195,null,null,null,null,null,below,IBstimulus_absent,null,null,9040.79
3,3,2,horizontal,vertical,null,null,null,3229.4,null,null,null,null,null,above,IBstimulus_absent,null,null,6658.105
3,3,3,horizontal,horizontal,yes,blue,reportColor,2474.055,4614.965,2982.285,2229.825,3646.28,5293.695,above,IBstimulus_present,blue,right,26051.17
3,4,0,horizontal,horizontal,null,null,null,7493.57,null,null,null,null,null,below,IBstimulus_absent,null,null,18199.25
3,4,1,vertical,vertical,null,null,null,3233.89,null,null,null,null,null,below,IBstimulus_absent,null,null,9298.46
3,4,2,horizontal,horizontal,null,null,null,3373.635,null,null,null,null,null,above,IBstimulus_absent,null,null,7903.05
3,4,3,horizontal,horizontal,no,red,reportColor,3497.2,9383.15,11415.88,12591.7,4007.935,8063.48,below,IBstimulus_present,blue,left,54172.435
3,5,0,vertical,vertical,null,null,null,3227,null,null,null,null,null,above,IBstimulus_absent,null,null,28142
3,5,1,horizontal,horizontal,null,null,null,2599,null,null,null,null,null,below,IBstimulus_absent,null,null,14165
3,5,2,vertical,vertical,null,null,null,2284,null,null,null,null,null,below,IBstimulus_absent,null,null,5934
3,5,3,vertical,vertical,no,red,reportColor,2062,7136,18030,10136,4895,7207,above,IBstimulus_present,blue,right,53862
3,6,0,vertical,vertical,null,null,null,2103.165,null,null,null,null,null,above,IBstimulus_absent,null,null,7250.495
3,6,1,horizontal,horizontal,null,null,null,1422.92,null,null,null,null,null,above,IBstimulus_absent,null,null,8684.875
3,6,2,horizontal,horizontal,null,null,null,1144.3,null,null,null,null,null,above,IBstimulus_absent,null,null,4037.205
3,6,3,horizontal,horizontal,no,blue,reportColor,1260.3,7030.75,11346.85,4945.805,3349.91,4190.805,below,IBstimulus_absent,null,null,35437.655
3,7,0,vertical,vertical,null,null,null,10141,null,null,null,null,null,above,IBstimulus_absent,null,null,22840
3,7,1,vertical,vertical,null,null,null,3040,null,null,null,null,null,above,IBstimulus_absent,null,null,12505
3,7,2,vertical,vertical,null,null,null,2789,null,null,null,null,null,above,IBstimulus_absent,null,null,9732
3,7,3,horizontal,horizontal,yes,red,reportColor,3020,8081,14353,6210,6183,6110,above,IBstimulus_present,blue,left,48923
3,8,0,horizontal,horizontal,null,null,null,6249.705,null,null,null,null,null,below,IBstimulus_absent,null,null,11864.45
3,8,1,vertical,vertical,null,null,null,3176.315,null,null,null,null,null,above,IBstimulus_absent,null,null,8307.05
3,8,2,vertical,vertical,null,null,null,2292.695,null,null,null,null,null,above,IBstimulus_absent,null,null,6931.5
3,8,3,vertical,vertical,yes,blue,reportColor,2142.715,4638.94,15393.455,4229.815,5543.855,5358.64,above,IBstimulus_present,blue,left,42285.955
3,9,0,vertical,horizontal,null,null,null,4069.47,null,null,null,null,null,above,IBstimulus_absent,null,null,12207.2
3,9,1,horizontal,horizontal,null,null,null,2741.715,null,null,null,null,null,below,IBstimulus_absent,null,null,6580.105
3,9,2,horizontal,horizontal,null,null,null,2001.12,null,null,null,null,null,below,IBstimulus_absent,null,null,5624.09
3,9,3,vertical,vertical,yes,red,reportColor,2844.695,4445.26,4710.48,6724.6,4582.54,6714.335,below,IBstimulus_present,red,left,33589.75
3,10,0,horizontal,vertical,null,null,null,3748.59,null,null,null,null,null,above,IBstimulus_absent,null,null,8558.345
3,10,1,horizontal,horizontal,null,null,null,2462.01,null,null,null,null,null,above,IBstimulus_absent,null,null,5988.285
3,10,2,vertical,vertical,null,null,null,2211.79,null,null,null,null,null,above,IBstimulus_absent,null,null,5397.67
3,10,3,vertical,vertical,yes,blue,reportColor,1952.7,5553.335,2264.27,5705.705,4822.495,6078.64,above,IBstimulus_present,blue,right,29814.35
3,11,0,horizontal,vertical,null,null,null,6130.015,null,null,null,null,null,below,IBstimulus_absent,null,null,12305.9
3,11,1,vertical,vertical,null,null,null,9436.37,null,null,null,null,null,below,IBstimulus_absent,null,null,16083.94
3,11,2,vertical,horizontal,null,null,null,3829.06,null,null,null,null,null,above,IBstimulus_absent,null,null,8650.14
3,11,3,horizontal,horizontal,no,blue,reportColor,2848.96,4892.99,7368.195,6918,4454.6,7367.445,below,IBstimulus_present,red,right,37632.93
3,12,0,horizontal,horizontal,null,null,null,3143.585,null,null,null,null,null,below,IBstimulus_absent,null,null,7435.74
3,12,1,vertical,vertical,null,null,null,1757.725,null,null,null,null,null,above,IBstimulus_absent,null,null,4914.025
3,12,2,vertical,vertical,null,null,null,1327.625,null,null,null,null,null,below,IBstimulus_absent,null,null,7435.475
3,12,3,horizontal,horizontal,yes,red,reportColor,6315.59,2810.885,1206.45,7236.72,2914.69,2605.725,above,IBstimulus_present,red,right,25932.95
3,13,0,vertical,vertical,null,null,null,2564.175,null,null,null,null,null,below,IBstimulus_absent,null,null,7465.12
3,13,1,vertical,vertical,null,null,null,2326.435,null,null,null,null,null,above,IBstimulus_absent,null,null,6904.825
3,13,2,horizontal,horizontal,null,null,null,1777.645,null,null,null,null,null,below,IBstimulus_absent,null,null,5783.155
3,13,3,vertical,vertical,no,red,reportColor,2081.39,4567.725,6726.585,4152.19,3463.07,4935.685,below,IBstimulus_present,blue,right,29537.125
3,14,0,horizontal,horizontal,null,null,null,2638.09,null,null,null,null,null,below,IBstimulus_absent,null,null,9499.245
3,14,1,vertical,vertical,null,null,null,2507.67,null,null,null,null,null,above,IBstimulus_absent,null,null,16325.855
3,14,2,vertical,vertical,null,null,null,2320.64,null,null,null,null,null,below,IBstimulus_absent,null,null,6207.775
3,14,3,vertical,vertical,yes,blue,reportColor,2709.39,2704.255,8604.23,5205.27,4195.6,8959.92,below,IBstimulus_present,blue,left,36042.095
3,15,0,horizontal,horizontal,null,null,null,3063,null,null,null,null,null,above,IBstimulus_absent,null,null,10053
3,15,1,horizontal,horizontal,null,null,null,2138,null,null,null,null,null,below,IBstimulus_absent,null,null,5830
3,15,2,vertical,vertical,null,null,null,1870,null,null,null,null,null,below,IBstimulus_absent,null,null,5136
3,15,3,horizontal,horizontal,yes,blue,reportColor,1880,2688,3375,5104,2767,3016,below,IBstimulus_present,blue,right,21832
3,16,0,horizontal,horizontal,null,null,null,1343.485,null,null,null,null,null,above,IBstimulus_absent,null,null,5894.12
3,16,1,horizontal,horizontal,null,null,null,1638.85,null,null,null,null,null,above,IBstimulus_absent,null,null,8157.155
3,16,2,vertical,vertical,null,null,null,1269.53,null,null,null,null,null,below,IBstimulus_absent,null,null,4295.015
3,16,3,vertical,vertical,yes,red,reportColor,1392.075,2999.7,2351.69,3111.78,3343.795,3535.72,above,IBstimulus_present,red,left,19637.71
3,17,0,vertical,vertical,null,null,null,2354,null,null,null,null,null,above,IBstimulus_absent,null,null,11954
3,17,1,horizontal,horizontal,null,null,null,1884,null,null,null,null,null,below,IBstimulus_absent,null,null,6560
3,17,2,horizontal,horizontal,null,null,null,2628,null,null,null,null,null,below,IBstimulus_absent,null,null,6527
3,17,3,horizontal,horizontal,yes,blue,reportColor,1899,12378,8456,4967,4657,5302,above,IBstimulus_absent,null,null,48403
3,18,0,horizontal,horizontal,null,null,null,2178.045,null,null,null,null,null,below,IBstimulus_absent,null,null,7378.66
3,18,1,vertical,vertical,null,null,null,2955.38,null,null,null,null,null,below,IBstimulus_absent,null,null,20674.725
3,18,2,vertical,vertical,null,null,null,2252.62,null,null,null,null,null,below,IBstimulus_absent,null,null,6229.13
3,18,3,horizontal,horizontal,no,red,reportColor,1880.525,4223.505,6625.525,4145.515,4940.045,3833.09,below,IBstimulus_present,blue,left,29695.85
3,19,0,horizontal,horizontal,null,null,null,4728.745,null,null,null,null,null,below,IBstimulus_absent,null,null,11952.52
3,19,1,vertical,vertical,null,null,null,2869.345,null,null,null,null,null,above,IBstimulus_absent,null,null,7555.8
3,19,2,vertical,vertical,null,null,null,2351.475,null,null,null,null,null,above,IBstimulus_absent,null,null,6999.23
3,19,3,horizontal,horizontal,no,blue,reportColor,2603.325,6574.615,9644.295,5636.535,5649.59,6238.28,below,IBstimulus_present,blue,left,39977.635
3,20,0,vertical,vertical,null,null,null,37559.65,null,null,null,null,null,below,IBstimulus_absent,null,null,57334.685
3,20,1,vertical,vertical,null,null,null,4480,null,null,null,null,null,below,IBstimulus_absent,null,null,11546.915
3,20,2,vertical,vertical,null,null,null,3095.685,null,null,null,null,null,below,IBstimulus_absent,null,null,7697.27
3,20,3,horizontal,horizontal,yes,red,reportColor,2718.27,4917.795,9366.86,6606.53,4967.53,6348.39,below,IBstimulus_present,red,left,38350.05
3,21,0,horizontal,horizontal,null,null,null,3193.05,null,null,null,null,null,below,IBstimulus_absent,null,null,9455.44
3,21,1,horizontal,horizontal,null,null,null,3099.465,null,null,null,null,null,below,IBstimulus_absent,null,null,10140.05
3,21,2,horizontal,horizontal,null,null,null,3836.9,null,null,null,null,null,below,IBstimulus_absent,null,null,7077.395
3,21,3,vertical,vertical,yes,blue,reportColor,3120.83,7677.65,14332.93,5620.99,4297.99,7823.51,above,IBstimulus_present,blue,right,46417.41
3,22,0,horizontal,horizontal,null,null,null,12626.27,null,null,null,null,null,above,IBstimulus_absent,null,null,23591.8
3,22,1,horizontal,horizontal,null,null,null,4806.72,null,null,null,null,null,below,IBstimulus_absent,null,null,13194.195
3,22,2,vertical,vertical,null,null,null,3853.69,null,null,null,null,null,below,IBstimulus_absent,null,null,9060.455
3,22,3,horizontal,horizontal,no,blue,reportColor,2923.03,6176.93,9892.735,11994.22,6719.26,8436.37,below,IBstimulus_absent,null,null,50243.51
3,23,0,horizontal,horizontal,null,null,null,3110.73,null,null,null,null,null,above,IBstimulus_absent,null,null,12031.77
3,23,1,vertical,vertical,null,null,null,2140.865,null,null,null,null,null,above,IBstimulus_absent,null,null,7180.195
3,23,2,horizontal,horizontal,null,null,null,1974.38,null,null,null,null,null,above,IBstimulus_absent,null,null,7988.58
3,23,3,horizontal,horizontal,yes,red,reportColor,2640.125,5616.785,5701.345,5058.4,4315.085,5170.37,below,IBstimulus_absent,null,null,33050.365
3,24,0,horizontal,horizontal,null,null,null,11445.57,null,null,null,null,null,below,IBstimulus_absent,null,null,19750.2
3,24,1,vertical,vertical,null,null,null,2451.155,null,null,null,null,null,below,IBstimulus_absent,null,null,6287.495
3,24,2,vertical,vertical,null,null,null,1689.585,null,null,null,null,null,above,IBstimulus_absent,null,null,4817.085
3,24,3,vertical,vertical,no,blue,reportColor,1808.865,6916.96,39406.735,6842.5,3974.32,5069.62,below,IBstimulus_present,red,right,67352.41
3,25,0,vertical,vertical,null,null,null,2629.685,null,null,null,null,null,above,IBstimulus_absent,null,null,8077.7
3,25,1,vertical,vertical,null,null,null,1200.535,null,null,null,null,null,above,IBstimulus_absent,null,null,19763.735
3,25,2,horizontal,horizontal,null,null,null,1440.74,null,null,null,null,null,above,IBstimulus_absent,null,null,4722.505
3,25,3,horizontal,horizontal,no,blue,reportColor,1397.875,2867.165,5471.775,5707.395,3319.455,4359.88,above,IBstimulus_absent,null,null,26687.1
3,26,0,horizontal,null,null,null,null,null,null,null,null,null,null,below,IBstimulus_absent,null,null,
3,26,1,horizontal,null,null,null,null,null,null,null,null,null,null,below,IBstimulus_absent,null,null,
3,26,2,vertical,null,null,null,null,null,null,null,null,null,null,below,IBstimulus_absent,null,null,
3,26,3,horizontal,null,null,null,reportColor,null,null,null,null,null,null,below,IBstimulus_present,red,right,
3,27,0,vertical,vertical,null,null,null,5133,null,null,null,null,null,below,IBstimulus_absent,null,null,16282
3,27,1,horizontal,horizontal,null,null,null,7133,null,null,null,null,null,below,IBstimulus_absent,null,null,15167
3,27,2,vertical,vertical,null,null,null,4285,null,null,null,null,null,above,IBstimulus_absent,null,null,8210
3,27,3,vertical,vertical,no,blue,reportColor,2887,8889,9724,7293,4753,6382,below,IBstimulus_present,blue,left,43205
3,28,0,horizontal,horizontal,null,null,null,3918,null,null,null,null,null,below,IBstimulus_absent,null,null,10525
3,28,1,vertical,vertical,null,null,null,3397,null,null,null,null,null,below,IBstimulus_absent,null,null,8278
3,28,2,vertical,vertical,null,null,null,2802,null,null,null,null,null,above,IBstimulus_absent,null,null,13160
3,28,3,vertical,vertical,no,blue,reportColor,2937,5990,7974,6142,4388,4932,above,IBstimulus_present,red,right,42923
3,29,0,horizontal,horizontal,null,null,null,4535.32,null,null,null,null,null,below,IBstimulus_absent,null,null,15062.37
3,29,1,horizontal,horizontal,null,null,null,2640.54,null,null,null,null,null,below,IBstimulus_absent,null,null,8004.915
3,29,2,vertical,vertical,null,null,null,3627.75,null,null,null,null,null,above,IBstimulus_absent,null,null,7138.2
3,29,3,vertical,vertical,yes,blue,reportColor,2369.88,7960.625,2319.305,8856.59,4035.31,4429.185,above,IBstimulus_present,blue,left,32850.315
3,30,0,horizontal,horizontal,null,null,null,4363.615,null,null,null,null,null,above,IBstimulus_absent,null,null,9310.03
3,30,1,vertical,vertical,null,null,null,2108.82,null,null,null,null,null,below,IBstimulus_absent,null,null,6831.54
3,30,2,vertical,vertical,null,null,null,1850.81,null,null,null,null,null,above,IBstimulus_absent,null,null,5261.21
3,30,3,vertical,vertical,yes,red,reportColor,2491.54,3061.055,4740.765,4922.16,3460.295,4047.3,below,IBstimulus_present,red,left,26196.585
3,31,0,vertical,vertical,null,null,null,1859.275,null,null,null,null,null,below,IBstimulus_absent,null,null,6926.55
3,31,1,horizontal,horizontal,null,null,null,1401.815,null,null,null,null,null,above,IBstimulus_absent,null,null,5925.345
3,31,2,horizontal,horizontal,null,null,null,1075.16,null,null,null,null,null,above,IBstimulus_absent,null,null,4174.66
3,31,3,vertical,vertical,no,blue,reportColor,1108.265,3966.21,4991.965,4695.92,2703.345,3982.405,above,IBstimulus_absent,null,null,25731.855
3,32,0,vertical,vertical,null,null,null,3124.345,null,null,null,null,null,above,IBstimulus_absent,null,null,12286.99
3,32,1,horizontal,horizontal,null,null,null,3598.115,null,null,null,null,null,below,IBstimulus_absent,null,null,10409.695
3,32,2,vertical,vertical,null,null,null,2225.005,null,null,null,null,null,above,IBstimulus_absent,null,null,10270.725
3,32,3,horizontal,horizontal,no,blue,reportColor,4023.34,5334.01,11221.705,8457.425,3991.88,3295.775,below,IBstimulus_absent,null,null,46328.48
3,33,0,horizontal,horizontal,null,null,null,2141.2,null,null,null,null,null,above,IBstimulus_absent,null,null,7768.48
3,33,1,vertical,vertical,null,null,null,1128.33,null,null,null,null,null,below,IBstimulus_absent,null,null,6484.46
3,33,2,vertical,vertical,null,null,null,1372.3,null,null,null,null,null,above,IBstimulus_absent,null,null,4541.495
3,33,3,vertical,vertical,yes,red,reportColor,1453.285,3383.665,1271.235,2879.495,2583.93,3670.52,below,IBstimulus_present,red,right,18235.8
3,34,0,horizontal,vertical,null,null,null,8994.76,null,null,null,null,null,above,IBstimulus_absent,null,null,18827.835
3,34,1,horizontal,horizontal,null,null,null,6747.095,null,null,null,null,null,below,IBstimulus_absent,null,null,11825.16
3,34,2,vertical,vertical,null,null,null,4001.075,null,null,null,null,null,above,IBstimulus_absent,null,null,9033.81
3,34,3,vertical,vertical,no,blue,reportColor,3236.395,7729.575,10488.54,11710.715,31535.5,19009.54,above,IBstimulus_present,blue,left,87560.35
3,35,0,horizontal,horizontal,null,null,null,4728.745,null,null,null,null,null,below,IBstimulus_absent,null,null,11952.52
3,35,1,vertical,vertical,null,null,null,2869.345,null,null,null,null,null,above,IBstimulus_absent,null,null,7555.8
3,35,2,vertical,vertical,null,null,null,2351.475,null,null,null,null,null,above,IBstimulus_absent,null,null,6999.23
3,35,3,horizontal,horizontal,no,blue,reportColor,2603.325,6574.615,9644.295,5636.535,5649.59,6238.28,below,IBstimulus_present,blue,left,39977.635
3,36,0,horizontal,horizontal,null,null,null,2946,null,null,null,null,null,below,IBstimulus_absent,null,null,12294
3,36,1,horizontal,horizontal,null,null,null,2560,null,null,null,null,null,below,IBstimulus_absent,null,null,11316
3,36,2,vertical,vertical,null,null,null,2909,null,null,null,null,null,below,IBstimulus_absent,null,null,7201
3,36,3,vertical,vertical,yes,blue,reportColor,10685,4663,6076,4097,3831,6868,above,IBstimulus_present,blue,right,40918
3,37,0,vertical,horizontal,null,null,null,13624,null,null,null,null,null,below,IBstimulus_absent,null,null,29322
3,37,1,vertical,horizontal,null,null,null,54492,null,null,null,null,null,below,IBstimulus_absent,null,null,69651
3,37,2,horizontal,vertical,null,null,null,11561,null,null,null,null,null,above,IBstimulus_absent,null,null,17037
3,37,3,vertical,vertical,no,blue,reportColor,2644,20995,20757,37256,9241,13153,above,IBstimulus_present,blue,left,110381
3,38,0,vertical,vertical,null,null,null,3509.105,null,null,null,null,null,below,IBstimulus_absent,null,null,10370.355
3,38,1,horizontal,horizontal,null,null,null,1825.36,null,null,null,null,null,below,IBstimulus_absent,null,null,5791.765
3,38,2,horizontal,horizontal,null,null,null,2199.55,null,null,null,null,null,below,IBstimulus_absent,null,null,5869.43
3,38,3,horizontal,horizontal,yes,blue,reportColor,2304.02,8175.075,8295.43,6573.465,3815.085,4518.91,above,IBstimulus_present,blue,left,36917.86
3,39,0,horizontal,horizontal,null,null,null,3029.09,null,null,null,null,null,below,IBstimulus_absent,null,null,8284.01
3,39,1,vertical,vertical,null,null,null,2020.56,null,null,null,null,null,above,IBstimulus_absent,null,null,8001.235
3,39,2,horizontal,horizontal,null,null,null,2542.16,null,null,null,null,null,below,IBstimulus_absent,null,null,10235.5
3,39,3,vertical,vertical,yes,red,reportColor,2551.365,5294.745,5755.44,4375.78,3082.155,4724.735,below,IBstimulus_present,red,right,28453.2
3,40,0,horizontal,horizontal,null,null,null,2638.09,null,null,null,null,null,below,IBstimulus_absent,null,null,9499.245
3,40,1,vertical,vertical,null,null,null,2507.67,null,null,null,null,null,above,IBstimulus_absent,null,null,16325.855
3,40,2,vertical,vertical,null,null,null,2320.64,null,null,null,null,null,below,IBstimulus_absent,null,null,6207.775
3,40,3,vertical,vertical,yes,blue,reportColor,2709.39,2704.255,8604.23,5205.27,4195.6,8959.92,below,IBstimulus_present,blue,left,36042.095
3,41,0,vertical,vertical,null,null,null,9698.22,null,null,null,null,null,below,IBstimulus_absent,null,null,25603.09
3,41,1,horizontal,horizontal,null,null,null,1963.91,null,null,null,null,null,below,IBstimulus_absent,null,null,7199.4
3,41,2,vertical,vertical,null,null,null,2949.435,null,null,null,null,null,below,IBstimulus_absent,null,null,6546.93
3,41,3,vertical,vertical,yes,red,reportColor,3041.645,6272.125,11239.155,10738.615,5035.91,9444.25,above,IBstimulus_present,blue,right,49501.13
3,42,0,horizontal,horizontal,null,null,null,3143.585,null,null,null,null,null,below,IBstimulus_absent,null,null,7435.74
3,42,1,vertical,vertical,null,null,null,1757.725,null,null,null,null,null,above,IBstimulus_absent,null,null,4914.025
3,42,2,vertical,vertical,null,null,null,1327.625,null,null,null,null,null,below,IBstimulus_absent,null,null,7435.475
3,42,3,horizontal,horizontal,yes,red,reportColor,6315.59,2810.885,1206.45,7236.72,2914.69,2605.725,above,IBstimulus_present,red,right,25932.95
3,43,0,vertical,vertical,null,null,null,5223.37,null,null,null,null,null,above,IBstimulus_absent,null,null,10358.28
3,43,1,vertical,vertical,null,null,null,2426.37,null,null,null,null,null,below,IBstimulus_absent,null,null,6706.54
3,43,2,vertical,vertical,null,null,null,2423.45,null,null,null,null,null,below,IBstimulus_absent,null,null,7798.58
3,43,3,vertical,vertical,yes,red,reportColor,2447.155,3294.095,2170.295,8700.735,4111.55,5301.945,above,IBstimulus_present,red,right,30460.055
3,44,0,horizontal,vertical,null,null,null,11046.945,null,null,null,null,null,above,IBstimulus_absent,null,null,22117.85
3,44,1,horizontal,horizontal,null,null,null,4853.01,null,null,null,null,null,above,IBstimulus_absent,null,null,10906.475
3,44,2,vertical,vertical,null,null,null,4888.835,null,null,null,null,null,below,IBstimulus_absent,null,null,10992.265
3,44,3,vertical,vertical,no,blue,reportColor,3280.135,9577.535,13969.1,13147.85,6837.06,8142.095,above,IBstimulus_present,red,right,60317.4
3,45,0,horizontal,vertical,null,null,null,4689,null,null,null,null,null,above,IBstimulus_absent,null,null,14887
3,45,1,horizontal,horizontal,null,null,null,2421,null,null,null,null,null,below,IBstimulus_absent,null,null,8559
3,45,2,horizontal,horizontal,null,null,null,1613,null,null,null,null,null,above,IBstimulus_absent,null,null,6128
3,45,3,vertical,vertical,no,blue,reportColor,1648,4824,7112,6369,3305,3409,above,IBstimulus_absent,null,null,30091
3,46,0,vertical,vertical,null,null,null,3419,null,null,null,null,null,above,IBstimulus_absent,null,null,14788
3,46,1,horizontal,horizontal,null,null,null,1649,null,null,null,null,null,below,IBstimulus_absent,null,null,6011
3,46,2,vertical,vertical,null,null,null,2681,null,null,null,null,null,above,IBstimulus_absent,null,null,7148
3,46,3,horizontal,horizontal,no,blue,reportColor,2222,6593,6799,6490,3219,3746,below,IBstimulus_present,blue,right,32186
3,47,0,vertical,vertical,null,null,null,3495.115,null,null,null,null,null,below,IBstimulus_absent,null,null,10115.03
3,47,1,horizontal,horizontal,null,null,null,1462.37,null,null,null,null,null,below,IBstimulus_absent,null,null,5733.13
3,47,2,horizontal,horizontal,null,null,null,1591.955,null,null,null,null,null,below,IBstimulus_absent,null,null,5342.965
3,47,3,vertical,vertical,yes,blue,reportColor,1944.985,6183.725,12191.735,11943.9,2975.86,6687.53,above,IBstimulus_absent,null,null,45456.44
3,48,0,vertical,vertical,null,null,null,2564.72,null,null,null,null,null,below,IBstimulus_absent,null,null,7621.24
3,48,1,horizontal,horizontal,null,null,null,2064.03,null,null,null,null,null,below,IBstimulus_absent,null,null,6212.87
3,48,2,horizontal,horizontal,null,null,null,1698.075,null,null,null,null,null,below,IBstimulus_absent,null,null,4951.55
3,48,3,horizontal,horizontal,yes,red,reportColor,2850.15,3007.525,3327.975,2743.46,2711.735,3176.12,below,IBstimulus_present,red,left,20716.405
3,49,0,horizontal,null,null,null,null,null,null,null,null,null,null,below,IBstimulus_absent,null,null,
3,49,1,vertical,null,null,null,null,null,null,null,null,null,null,above,IBstimulus_absent,null,null,
3,49,2,horizontal,null,null,null,null,null,null,null,null,null,null,above,IBstimulus_absent,null,null,
3,49,3,vertical,null,null,null,reportColor,null,null,null,null,null,null,above,IBstimulus_absent,null,null,
3,50,0,vertical,horizontal,null,null,null,2588.77,null,null,null,null,null,above,IBstimulus_absent,null,null,7543.09
3,50,1,vertical,vertical,null,null,null,12168.67,null,null,null,null,null,below,IBstimulus_absent,null,null,15825.22
3,50,2,vertical,horizontal,null,null,null,1986.61,null,null,null,null,null,above,IBstimulus_absent,null,null,6392.935
3,50,3,horizontal,horizontal,no,blue,reportColor,2521.82,5349.115,4167.625,4234.305,2803.865,26332.375,above,IBstimulus_present,red,right,49375.305
3,51,0,horizontal,vertical,null,null,null,9118.564999,null,null,null,null,null,below,IBstimulus_absent,null,null,25483.425
3,51,1,horizontal,horizontal,null,null,null,2667.394999,null,null,null,null,null,below,IBstimulus_absent,null,null,7178.605001
3,51,2,vertical,vertical,null,null,null,1992.835,null,null,null,null,null,below,IBstimulus_absent,null,null,6690.93
3,51,3,vertical,vertical,no,blue,reportColor,2116.03,9153.820001,9609.339999,7952.879999,4791.974999,5386.525,below,IBstimulus_absent,null,null,42971.01
3,52,0,vertical,vertical,null,null,null,3160.525,null,null,null,null,null,above,IBstimulus_absent,null,null,9940.985
3,52,1,vertical,vertical,null,null,null,2059.915,null,null,null,null,null,above,IBstimulus_absent,null,null,6620.4
3,52,2,vertical,vertical,null,null,null,3857.635,null,null,null,null,null,below,IBstimulus_absent,null,null,8268.775
3,52,3,horizontal,horizontal,no,blue,reportColor,1335.735,4167.775,6991.725,7958.99,2920.515,2927.255,above,IBstimulus_absent,null,null,30308.39
3,53,0,horizontal,horizontal,null,null,null,2086.5,null,null,null,null,null,below,IBstimulus_absent,null,null,9281.8
3,53,1,vertical,vertical,null,null,null,1336.1,null,null,null,null,null,below,IBstimulus_absent,null,null,6014.61
3,53,2,horizontal,horizontal,null,null,null,1245.615,null,null,null,null,null,below,IBstimulus_absent,null,null,4525.5
3,53,3,horizontal,horizontal,yes,blue,reportColor,1430.89,4410.765,11159.85,3852.755,2868.815,4769.81,above,IBstimulus_absent,null,null,31770.165
3,54,0,horizontal,horizontal,null,null,null,10715.585,null,null,null,null,null,above,IBstimulus_absent,null,null,15957.97
3,54,1,horizontal,horizontal,null,null,null,2230.73,null,null,null,null,null,below,IBstimulus_absent,null,null,13077.895
3,54,2,horizontal,horizontal,null,null,null,1729.395,null,null,null,null,null,above,IBstimulus_absent,null,null,9359.27
3,54,3,horizontal,horizontal,yes,blue,reportColor,2923.345,4174.01,4467.8,4719.135,3709.47,5653.285,below,IBstimulus_present,blue,right,29930.275
3,55,0,vertical,vertical,null,null,null,10788,null,null,null,null,null,below,IBstimulus_absent,null,null,21033
3,55,1,vertical,horizontal,null,null,null,6280,null,null,null,null,null,above,IBstimulus_absent,null,null,13379
3,55,2,vertical,vertical,null,null,null,2913,null,null,null,null,null,below,IBstimulus_absent,null,null,6862
3,55,3,horizontal,horizontal,yes,red,reportColor,4129,6745,12384,6403,4772,7098,above,IBstimulus_present,blue,left,45291
3,56,0,horizontal,horizontal,null,null,null,2961.655,null,null,null,null,null,above,IBstimulus_absent,null,null,9525.13
3,56,1,horizontal,horizontal,null,null,null,2393.595,null,null,null,null,null,above,IBstimulus_absent,null,null,9211.76
3,56,2,vertical,vertical,null,null,null,1769.295,null,null,null,null,null,above,IBstimulus_absent,null,null,5321.555
3,56,3,horizontal,horizontal,no,blue,reportColor,1435.915,5098.265,5574.86,3407.58,2799.775,9475.61,above,IBstimulus_present,red,right,30575.295
3,57,0,vertical,vertical,null,null,null,1900,null,null,null,null,null,above,IBstimulus_absent,null,null,8541.105
3,57,1,horizontal,horizontal,null,null,null,1325.66,null,null,null,null,null,below,IBstimulus_absent,null,null,11974.055
3,57,2,horizontal,horizontal,null,null,null,1159.36,null,null,null,null,null,below,IBstimulus_absent,null,null,4266.88
3,57,3,vertical,vertical,no,blue,reportColor,1194.83,5341.06,5018.51,13091.16,1865.34,3509.245,above,IBstimulus_absent,null,null,33139.41
3,58,0,vertical,vertical,null,null,null,2913.615,null,null,null,null,null,below,IBstimulus_absent,null,null,7821.505
3,58,1,vertical,vertical,null,null,null,1570.415,null,null,null,null,null,above,IBstimulus_absent,null,null,4952.92
3,58,2,horizontal,horizontal,null,null,null,1664.22,null,null,null,null,null,above,IBstimulus_absent,null,null,5059.94
3,58,3,horizontal,horizontal,yes,red,reportColor,4329.735,4854.32,3805.22,3565.225,2698.82,3581.47,below,IBstimulus_present,red,right,26002.755
3,59,0,vertical,vertical,null,null,null,3509.105,null,null,null,null,null,below,IBstimulus_absent,null,null,10370.355
3,59,1,horizontal,horizontal,null,null,null,1825.36,null,null,null,null,null,below,IBstimulus_absent,null,null,5791.765
3,59,2,horizontal,horizontal,null,null,null,2199.55,null,null,null,null,null,below,IBstimulus_absent,null,null,5869.43
3,59,3,horizontal,horizontal,yes,blue,reportColor,2304.02,8175.075,8295.43,6573.465,3815.085,4518.91,above,IBstimulus_present,blue,left,36917.86
3,60,0,vertical,vertical,null,null,null,3218,null,null,null,null,null,below,IBstimulus_absent,null,null,11501
3,60,1,horizontal,horizontal,null,null,null,2195,null,null,null,null,null,below,IBstimulus_absent,null,null,5609
3,60,2,horizontal,horizontal,null,null,null,1802,null,null,null,null,null,above,IBstimulus_absent,null,null,5425
3,60,3,vertical,vertical,yes,red,reportColor,1920,3817,4207,5572,3532,4739,above,IBstimulus_present,red,right,27250
3,61,0,horizontal,horizontal,null,null,null,5730.74,null,null,null,null,null,below,IBstimulus_absent,null,null,21453.985
3,61,1,horizontal,horizontal,null,null,null,2969.135,null,null,null,null,null,above,IBstimulus_absent,null,null,7008.275
3,61,2,vertical,vertical,null,null,null,2955.055,null,null,null,null,null,above,IBstimulus_absent,null,null,6367.545
3,61,3,vertical,vertical,no,blue,reportColor,1952.075,3606.905,4700.045,4404.3,3514.415,4708.465,above,IBstimulus_present,blue,right,27212.845
3,62,0,vertical,vertical,null,null,null,2056,null,null,null,null,null,below,IBstimulus_absent,null,null,7407
3,62,1,horizontal,horizontal,null,null,null,1580,null,null,null,null,null,above,IBstimulus_absent,null,null,5603
3,62,2,vertical,vertical,null,null,null,1513,null,null,null,null,null,below,IBstimulus_absent,null,null,4271
3,62,3,vertical,vertical,yes,blue,reportColor,1546,3884,2184,4072,2867,4134,above,IBstimulus_present,blue,left,21419
3,63,0,vertical,vertical,null,null,null,3886.855,null,null,null,null,null,below,IBstimulus_absent,null,null,10191.16
3,63,1,horizontal,horizontal,null,null,null,1754.98,null,null,null,null,null,below,IBstimulus_absent,null,null,6795.64
3,63,2,horizontal,horizontal,null,null,null,1534.98,null,null,null,null,null,below,IBstimulus_absent,null,null,4479.465
3,63,3,horizontal,horizontal,no,red,reportColor,1677.19,8343.755,5471.48,4895.26,3232.09,3959.555,above,IBstimulus_present,red,right,30525.74
3,64,0,horizontal,horizontal,null,null,null,3889,null,null,null,null,null,above,IBstimulus_absent,null,null,15619
3,64,1,horizontal,horizontal,null,null,null,2949,null,null,null,null,null,below,IBstimulus_absent,null,null,8074
3,64,2,vertical,vertical,null,null,null,2854,null,null,null,null,null,above,IBstimulus_absent,null,null,7119
3,64,3,horizontal,horizontal,no,blue,reportColor,2580,5860,12204,10316,5521,8203,above,IBstimulus_present,blue,left,48159
3,65,0,horizontal,horizontal,null,null,null,3817.245,null,null,null,null,null,below,IBstimulus_absent,null,null,10576.12
3,65,1,vertical,vertical,null,null,null,2940.02,null,null,null,null,null,below,IBstimulus_absent,null,null,10451.69
3,65,2,horizontal,horizontal,null,null,null,1908.625,null,null,null,null,null,below,IBstimulus_absent,null,null,5999.52
3,65,3,horizontal,horizontal,yes,blue,reportColor,2985.735,3735.08,5200.085,4600.185,2910.91,2831.69,above,IBstimulus_present,blue,left,25869.885
3,66,0,horizontal,horizontal,null,null,null,3339.76,null,null,null,null,null,above,IBstimulus_absent,null,null,7483.355
3,66,1,horizontal,horizontal,null,null,null,2464.595,null,null,null,null,null,below,IBstimulus_absent,null,null,11095.865
3,66,2,horizontal,horizontal,null,null,null,1375.345,null,null,null,null,null,above,IBstimulus_absent,null,null,4407.31
3,66,3,vertical,vertical,yes,blue,reportColor,1821.27,3016.59,1404.495,3344.41,4805.77,3573.82,above,IBstimulus_present,blue,left,21452.02
3,67,0,horizontal,vertical,null,null,null,7786.825,null,null,null,null,null,above,IBstimulus_absent,null,null,16994.93
3,67,1,vertical,vertical,null,null,null,4522.04,null,null,null,null,null,above,IBstimulus_absent,null,null,9396.295
3,67,2,vertical,vertical,null,null,null,3831.79,null,null,null,null,null,below,IBstimulus_absent,null,null,7821.755
3,67,3,vertical,vertical,no,red,reportColor,3648.405,8168.1,13411.315,6439.91,4674.635,5597.1,above,IBstimulus_present,red,right,46352.255
3,68,0,vertical,vertical,null,null,null,3167.39,null,null,null,null,null,below,IBstimulus_absent,null,null,10091.96
3,68,1,horizontal,horizontal,null,null,null,2824.55,null,null,null,null,null,above,IBstimulus_absent,null,null,7712.56
3,68,2,horizontal,horizontal,null,null,null,3950.065,null,null,null,null,null,above,IBstimulus_absent,null,null,9014.115
3,68,3,vertical,vertical,yes,red,reportColor,2445.745,4430.365,5926.735,5232.37,4303.1,6223.5,below,IBstimulus_present,red,right,33856.25
3,69,0,vertical,vertical,null,null,null,2923.455,null,null,null,null,null,above,IBstimulus_absent,null,null,8403.47
3,69,1,horizontal,horizontal,null,null,null,1882.22,null,null,null,null,null,below,IBstimulus_absent,null,null,7754
3,69,2,vertical,vertical,null,null,null,1534.505,null,null,null,null,null,below,IBstimulus_absent,null,null,5315.87
3,69,3,vertical,vertical,yes,blue,reportColor,3019.885,4402.605,3778.765,4817.67,2984.555,4512.76,below,IBstimulus_present,blue,left,27218.85
3,70,0,vertical,vertical,null,null,null,3218,null,null,null,null,null,below,IBstimulus_absent,null,null,11501
3,70,1,horizontal,horizontal,null,null,null,2195,null,null,null,null,null,below,IBstimulus_absent,null,null,5609
3,70,2,horizontal,horizontal,null,null,null,1802,null,null,null,null,null,above,IBstimulus_absent,null,null,5425
3,70,3,vertical,vertical,yes,red,reportColor,1920,3817,4207,5572,3532,4739,above,IBstimulus_present,red,right,27250
3,71,0,vertical,vertical,null,null,null,4591.285,null,null,null,null,null,below,IBstimulus_absent,null,null,10699.53
3,71,1,vertical,vertical,null,null,null,1961.475,null,null,null,null,null,below,IBstimulus_absent,null,null,6706.065
3,71,2,vertical,vertical,null,null,null,2041.125,null,null,null,null,null,below,IBstimulus_absent,null,null,6001.13
3,71,3,vertical,horizontal,yes,blue,reportColor,2674.345,6189.68,6248.155,4087.445,3399.835,5630.455,above,IBstimulus_present,blue,right,33041.795
3,72,0,horizontal,vertical,null,null,null,4384,null,null,null,null,null,above,IBstimulus_absent,null,null,16739
3,72,1,horizontal,horizontal,null,null,null,3139,null,null,null,null,null,below,IBstimulus_absent,null,null,7240
3,72,2,vertical,horizontal,null,null,null,2941,null,null,null,null,null,above,IBstimulus_absent,null,null,7160
3,72,3,vertical,vertical,no,blue,reportColor,2771,4310,12407,10673,4661,4927,below,IBstimulus_absent,null,null,43180
3,73,0,vertical,horizontal,null,null,null,4634.575,null,null,null,null,null,above,IBstimulus_absent,null,null,14721.08
3,73,1,vertical,vertical,null,null,null,3837.265,null,null,null,null,null,below,IBstimulus_absent,null,null,10586.885
3,73,2,vertical,vertical,null,null,null,2853.06,null,null,null,null,null,below,IBstimulus_absent,null,null,7203.545
3,73,3,vertical,vertical,yes,blue,reportColor,2750.355,4522.715,6950.52,7302.08,12028.92,10383.19,above,IBstimulus_present,blue,left,51275.05
3,74,0,vertical,vertical,null,null,null,2317.29,null,null,null,null,null,below,IBstimulus_absent,null,null,8933.02
3,74,1,horizontal,horizontal,null,null,null,2442.45,null,null,null,null,null,above,IBstimulus_absent,null,null,6320.32
3,74,2,vertical,vertical,null,null,null,1747.715,null,null,null,null,null,below,IBstimulus_absent,null,null,5168.77
3,74,3,vertical,vertical,no,blue,reportColor,1475.435,4021.935,5199.39,4083.725,2961.53,7663.58,above,IBstimulus_present,blue,left,29039.865
3,75,0,vertical,vertical,null,null,null,5695.675,null,null,null,null,null,above,IBstimulus_absent,null,null,10641.765
3,75,1,vertical,vertical,null,null,null,1716.935,null,null,null,null,null,above,IBstimulus_absent,null,null,5218.46
3,75,2,vertical,vertical,null,null,null,1656.85,null,null,null,null,null,below,IBstimulus_absent,null,null,4621.93
3,75,3,horizontal,horizontal,yes,blue,reportColor,5526.345,6306.95,9732.96,13574.195,4153.92,5367.785,above,IBstimulus_present,blue,left,48107.93
3,76,0,vertical,null,null,null,null,null,null,null,null,null,null,above,IBstimulus_absent,null,null,
3,76,1,vertical,null,null,null,null,null,null,null,null,null,null,below,IBstimulus_absent,null,null,
3,76,2,horizontal,null,null,null,null,null,null,null,null,null,null,above,IBstimulus_absent,null,null,
3,76,3,vertical,null,null,null,reportColor,null,null,null,null,null,null,below,IBstimulus_absent,null,null,
3,77,0,vertical,vertical,null,null,null,3218.225,null,null,null,null,null,above,IBstimulus_absent,null,null,9206.505
3,77,1,horizontal,horizontal,null,null,null,1815.355,null,null,null,null,null,above,IBstimulus_absent,null,null,6345.095
3,77,2,horizontal,horizontal,null,null,null,1512.19,null,null,null,null,null,below,IBstimulus_absent,null,null,4575.85
3,77,3,vertical,vertical,no,blue,reportColor,1534.265,3525.215,7147.585,4315.86,2837.36,6699.19,below,IBstimulus_absent,null,null,29291.66
3,78,0,vertical,vertical,null,null,null,2952.8,null,null,null,null,null,below,IBstimulus_absent,null,null,7262.715
3,78,1,horizontal,horizontal,null,null,null,1791.045,null,null,null,null,null,below,IBstimulus_absent,null,null,9161.67
3,78,2,horizontal,horizontal,null,null,null,2470.515,null,null,null,null,null,below,IBstimulus_absent,null,null,5478.935
3,78,3,vertical,vertical,no,blue,reportColor,1866.21,3786,5178.955,3154.105,2424.51,4658.35,above,IBstimulus_absent,null,null,26409.03
3,79,0,vertical,vertical,null,null,null,3214.445,null,null,null,null,null,below,IBstimulus_absent,null,null,13581.42
3,79,1,horizontal,horizontal,null,null,null,2150.285,null,null,null,null,null,above,IBstimulus_absent,null,null,8500.51
3,79,2,horizontal,horizontal,null,null,null,3831.865,null,null,null,null,null,below,IBstimulus_absent,null,null,9363.2
3,79,3,horizontal,horizontal,yes,red,reportColor,2216.985,9161.185,10713.095,7676,3665.135,5544.755,above,IBstimulus_absent,null,null,43914.755
3,80,0,vertical,vertical,null,null,null,2661.825,null,null,null,null,null,below,IBstimulus_absent,null,null,17193.945
3,80,1,vertical,horizontal,null,null,null,1914.145,null,null,null,null,null,above,IBstimulus_absent,null,null,5383.44
3,80,2,horizontal,horizontal,null,null,null,1437.88,null,null,null,null,null,below,IBstimulus_absent,null,null,4522.595
3,80,3,vertical,vertical,no,blue,reportColor,1638.78,7348.95,7721.975,9677.29,3534.255,3778.83,above,IBstimulus_present,blue,right,37229.78
3,81,0,vertical,null,null,null,null,null,null,null,null,null,null,below,IBstimulus_absent,null,null,
3,81,1,vertical,null,null,null,null,null,null,null,null,null,null,below,IBstimulus_absent,null,null,
3,81,2,horizontal,null,null,null,null,null,null,null,null,null,null,below,IBstimulus_absent,null,null,
3,81,3,horizontal,null,null,null,reportColor,null,null,null,null,null,null,below,IBstimulus_present,blue,left,
3,82,0,vertical,vertical,null,null,null,8094.49,null,null,null,null,null,below,IBstimulus_absent,null,null,27417.01
3,82,1,vertical,vertical,null,null,null,5221.835,null,null,null,null,null,above,IBstimulus_absent,null,null,12539.855
3,82,2,horizontal,horizontal,null,null,null,3524.065,null,null,null,null,null,above,IBstimulus_absent,null,null,8771.3
3,82,3,vertical,vertical,no,blue,reportColor,4052.6,10379.245,18135.635,11123.925,11268.91,31083.335,above,IBstimulus_present,red,right,92854.27
3,83,0,vertical,vertical,null,null,null,3333.875,null,null,null,null,null,below,IBstimulus_absent,null,null,7675.79
3,83,1,vertical,vertical,null,null,null,1906.925,null,null,null,null,null,below,IBstimulus_absent,null,null,5836.485
3,83,2,vertical,vertical,null,null,null,2413.37,null,null,null,null,null,below,IBstimulus_absent,null,null,5302.78
3,83,3,vertical,vertical,yes,blue,reportColor,4368.68,3567.815,2584.275,4687.225,3624.915,5067.485,below,IBstimulus_present,blue,right,26807.305
3,84,0,vertical,vertical,null,null,null,3734.945,null,null,null,null,null,below,IBstimulus_absent,null,null,9567.44
3,84,1,vertical,vertical,null,null,null,3131.94,null,null,null,null,null,above,IBstimulus_absent,null,null,7029.9
3,84,2,horizontal,horizontal,null,null,null,1736.435,null,null,null,null,null,above,IBstimulus_absent,null,null,5604.455
3,84,3,horizontal,horizontal,yes,red,reportColor,2910.09,3714.12,6469.385,14245.555,3851.7,4231.53,above,IBstimulus_present,red,left,39408.02
3,85,0,vertical,vertical,null,null,null,4528.865,null,null,null,null,null,above,IBstimulus_absent,null,null,11982.06
3,85,1,horizontal,horizontal,null,null,null,1341.445,null,null,null,null,null,below,IBstimulus_absent,null,null,6915.985
3,85,2,vertical,vertical,null,null,null,1295.05,null,null,null,null,null,below,IBstimulus_absent,null,null,6500.115
3,85,3,vertical,vertical,no,blue,reportColor,1120.52,8343.08,21933.85,3612.965,3250.29,3932.84,below,IBstimulus_present,red,right,46759.05
3,86,0,horizontal,horizontal,null,null,null,1737.73,null,null,null,null,null,above,IBstimulus_absent,null,null,6422.52
3,86,1,vertical,vertical,null,null,null,1979.665,null,null,null,null,null,above,IBstimulus_absent,null,null,5872.91
3,86,2,vertical,vertical,null,null,null,1771.04,null,null,null,null,null,below,IBstimulus_absent,null,null,5356.685
3,86,3,horizontal,horizontal,yes,blue,reportColor,1094.785,3997.63,4969.655,12365.58,4523.615,3827.575,below,IBstimulus_present,red,right,33960.465
3,87,0,horizontal,horizontal,null,null,null,6738.255,null,null,null,null,null,below,IBstimulus_absent,null,null,15048.82
3,87,1,horizontal,horizontal,null,null,null,3411.685,null,null,null,null,null,above,IBstimulus_absent,null,null,13380.415
3,87,2,horizontal,horizontal,null,null,null,2704.465,null,null,null,null,null,below,IBstimulus_absent,null,null,7457.895
3,87,3,vertical,vertical,yes,blue,reportColor,2590.95,3836.06,4319.71,5117.735,3485.905,4624.905,above,IBstimulus_present,blue,left,27522.66
3,88,0,vertical,vertical,null,null,null,3371.885,null,null,null,null,null,above,IBstimulus_absent,null,null,9077.665
3,88,1,vertical,vertical,null,null,null,3180.505,null,null,null,null,null,above,IBstimulus_absent,null,null,7179.215
3,88,2,horizontal,horizontal,null,null,null,1909.36,null,null,null,null,null,below,IBstimulus_absent,null,null,5336.49
3,88,3,vertical,vertical,no,blue,reportColor,4008.33,4018.86,6894.175,7322.45,4457.76,11666.27,below,IBstimulus_absent,null,null,41846.605
3,89,0,vertical,vertical,null,null,null,2462.605,null,null,null,null,null,above,IBstimulus_absent,null,null,8874.215
3,89,1,horizontal,horizontal,null,null,null,1985.53,null,null,null,null,null,below,IBstimulus_absent,null,null,8843.73
3,89,2,horizontal,horizontal,null,null,null,1669.56,null,null,null,null,null,above,IBstimulus_absent,null,null,8071.51
3,89,3,vertical,vertical,yes,red,reportColor,1513.35,5085.38,1754.85,5140.975,4361.275,5605.6,below,IBstimulus_present,red,left,27228.96
3,90,0,vertical,vertical,null,null,null,3214.445,null,null,null,null,null,below,IBstimulus_absent,null,null,13581.42
3,90,1,horizontal,horizontal,null,null,null,2150.285,null,null,null,null,null,above,IBstimulus_absent,null,null,8500.51
3,90,2,horizontal,horizontal,null,null,null,3831.865,null,null,null,null,null,below,IBstimulus_absent,null,null,9363.2
3,90,3,horizontal,horizontal,yes,red,reportColor,2216.985,9161.185,10713.095,7676,3665.135,5544.755,above,IBstimulus_absent,null,null,43914.755
3,91,0,vertical,vertical,null,null,null,3238.485,null,null,null,null,null,above,IBstimulus_absent,null,null,8541.59
3,91,1,horizontal,horizontal,null,null,null,1884.68,null,null,null,null,null,above,IBstimulus_absent,null,null,8913.98
3,91,2,horizontal,horizontal,null,null,null,1939.37,null,null,null,null,null,above,IBstimulus_absent,null,null,5302.395
3,91,3,horizontal,vertical,yes,blue,reportColor,7073.16,3642.255,4453.915,4976.61,3104.775,4308.045,below,IBstimulus_present,blue,left,30936.585
3,92,0,horizontal,null,null,null,null,null,null,null,null,null,null,below,IBstimulus_absent,null,null,
3,92,1,vertical,null,null,null,null,null,null,null,null,null,null,above,IBstimulus_absent,null,null,
3,92,2,horizontal,null,null,null,null,null,null,null,null,null,null,above,IBstimulus_absent,null,null,
3,92,3,horizontal,null,null,null,reportColor,null,null,null,null,null,null,below,IBstimulus_absent,null,null,
3,93,0,vertical,vertical,null,null,null,4155.765,null,null,null,null,null,above,IBstimulus_absent,null,null,11824.635
3,93,1,vertical,vertical,null,null,null,3695.57,null,null,null,null,null,below,IBstimulus_absent,null,null,7823.265
3,93,2,vertical,vertical,null,null,null,3407.77,null,null,null,null,null,below,IBstimulus_absent,null,null,6826.245
3,93,3,vertical,vertical,yes,red,reportColor,3610.06,4766.65,5595.29,9819.665,4332.12,6801.09,above,IBstimulus_present,red,right,43303.185
3,94,0,horizontal,horizontal,null,null,null,3035.445,null,null,null,null,null,above,IBstimulus_absent,null,null,10708.54
3,94,1,vertical,vertical,null,null,null,3552.52,null,null,null,null,null,above,IBstimulus_absent,null,null,16138.26
3,94,2,horizontal,horizontal,null,null,null,2285.035,null,null,null,null,null,above,IBstimulus_absent,null,null,6221.315
3,94,3,vertical,vertical,no,blue,reportColor,1996.17,7379.7,7655.37,4658.125,3142.54,9006.15,above,IBstimulus_absent,null,null,42923.64
3,95,0,vertical,horizontal,null,null,null,3145.65,null,null,null,null,null,above,IBstimulus_absent,null,null,6997.905
3,95,1,vertical,vertical,null,null,null,1170.91,null,null,null,null,null,below,IBstimulus_absent,null,null,4953.775
3,95,2,horizontal,horizontal,null,null,null,3278.98,null,null,null,null,null,above,IBstimulus_absent,null,null,5966.495
3,95,3,vertical,vertical,yes,red,reportColor,1744.76,2751.325,2048.09,2822.8,3453.965,3193.225,above,IBstimulus_present,red,right,18718.25
3,96,0,vertical,vertical,null,null,null,7363.205,null,null,null,null,null,below,IBstimulus_absent,null,null,13209.045
3,96,1,horizontal,horizontal,null,null,null,1345.03,null,null,null,null,null,below,IBstimulus_absent,null,null,6676.575
3,96,2,horizontal,horizontal,null,null,null,1376.33,null,null,null,null,null,below,IBstimulus_absent,null,null,4629.605
3,96,3,vertical,vertical,yes,red,reportColor,1669.1,8829.085,5516.465,5659.03,3172.225,4118.09,above,IBstimulus_present,red,right,32200.41
3,97,0,vertical,vertical,null,null,null,3203.85,null,null,null,null,null,below,IBstimulus_absent,null,null,9078.36
3,97,1,horizontal,horizontal,null,null,null,2534.24,null,null,null,null,null,below,IBstimulus_absent,null,null,6993.345
3,97,2,vertical,vertical,null,null,null,2085.435,null,null,null,null,null,below,IBstimulus_absent,null,null,5699.36
3,97,3,vertical,vertical,yes,red,reportColor,1886.28,3982.91,4527.775,4479.58,3416.33,4327.555,below,IBstimulus_present,red,left,26474.69
3,98,0,vertical,vertical,null,null,null,4056,null,null,null,null,null,above,IBstimulus_absent,null,null,18481
3,98,1,horizontal,horizontal,null,null,null,2380,null,null,null,null,null,below,IBstimulus_absent,null,null,8007
3,98,2,vertical,vertical,null,null,null,2565,null,null,null,null,null,below,IBstimulus_absent,null,null,7901
3,98,3,vertical,vertical,no,blue,reportColor,2364,9299,14923,9764,5245,6018,below,IBstimulus_absent,null,null,51913
3,99,0,vertical,vertical,null,null,null,4582,null,null,null,null,null,above,IBstimulus_absent,null,null,12950
3,99,1,vertical,vertical,null,null,null,1675,null,null,null,null,null,above,IBstimulus_absent,null,null,11694
3,99,2,vertical,vertical,null,null,null,1883,null,null,null,null,null,below,IBstimulus_absent,null,null,5311
3,99,3,horizontal,horizontal,no,red,reportColor,1640,4346,6956,6817,3935,4211,below,IBstimulus_absent,null,null,36142
3,100,0,vertical,horizontal,null,null,null,3274.085,null,null,null,null,null,above,IBstimulus_absent,null,null,11074.02
3,100,1,horizontal,horizontal,null,null,null,2316.16,null,null,null,null,null,above,IBstimulus_absent,null,null,11454.945
3,100,2,vertical,vertical,null,null,null,2118.885,null,null,null,null,null,below,IBstimulus_absent,null,null,6820.635
3,100,3,horizontal,horizontal,no,blue,reportColor,1619.665,4549.11,6032.515,7518.735,4309.705,8795.94,above,IBstimulus_present,red,left,42239.58
3,101,0,horizontal,horizontal,null,null,null,2799.835,null,null,null,null,null,below,IBstimulus_absent,null,null,12880.97
3,101,1,horizontal,vertical,null,null,null,2383.355,null,null,null,null,null,above,IBstimulus_absent,null,null,10260.56
3,101,2,horizontal,horizontal,null,null,null,2397.865,null,null,null,null,null,below,IBstimulus_absent,null,null,6906.3
3,101,3,horizontal,horizontal,no,red,reportColor,1390.515,5957.55,8472.875,6505.425,2924.3,3907.485,above,IBstimulus_absent,null,null,32015.64
3,102,0,vertical,vertical,null,null,null,3651.245,null,null,null,null,null,above,IBstimulus_absent,null,null,9271.16
3,102,1,vertical,vertical,null,null,null,2336.265,null,null,null,null,null,below,IBstimulus_absent,null,null,6939.115
3,102,2,vertical,vertical,null,null,null,2325.31,null,null,null,null,null,below,IBstimulus_absent,null,null,6998.105
3,102,3,vertical,horizontal,yes,red,reportColor,3870.87,3502.68,3787.1,3989.165,4822.905,4229.27,above,IBstimulus_present,red,right,27480.52
3,103,0,vertical,vertical,null,null,null,4313.695,null,null,null,null,null,above,IBstimulus_absent,null,null,9763.925
3,103,1,horizontal,horizontal,null,null,null,2143.335,null,null,null,null,null,above,IBstimulus_absent,null,null,7239.65
3,103,2,vertical,vertical,null,null,null,2078.155,null,null,null,null,null,above,IBstimulus_absent,null,null,5248.545
3,103,3,vertical,vertical,no,blue,reportColor,2835.685,6261.61,7558.045,12757.6,4309.705,5168.07,above,IBstimulus_absent,null,null,42155.64
3,104,0,vertical,vertical,null,null,null,7776.535,null,null,null,null,null,above,IBstimulus_absent,null,null,13749.96
3,104,1,vertical,vertical,null,null,null,1815.815,null,null,null,null,null,above,IBstimulus_absent,null,null,6643.515
3,104,2,vertical,vertical,null,null,null,1390.675,null,null,null,null,null,below,IBstimulus_absent,null,null,7205.55
3,104,3,vertical,vertical,yes,blue,reportColor,3768.53,2897.95,4791.41,3646.99,2092.835,3294.725,below,IBstimulus_present,blue,right,24160.225
3,105,0,vertical,vertical,null,null,null,4847.385,null,null,null,null,null,above,IBstimulus_absent,null,null,10389.035
3,105,1,vertical,vertical,null,null,null,2064.17,null,null,null,null,null,below,IBstimulus_absent,null,null,7978.815
3,105,2,horizontal,horizontal,null,null,null,1985.895,null,null,null,null,null,below,IBstimulus_absent,null,null,5935.57
3,105,3,vertical,horizontal,yes,blue,reportColor,2257.67,12902.695,8513.41,7912.51,4529.14,12236.825,below,IBstimulus_present,blue,right,52647.885
3,106,0,horizontal,vertical,null,null,null,5053,null,null,null,null,null,below,IBstimulus_absent,null,null,17561
3,106,1,vertical,vertical,null,null,null,3321,null,null,null,null,null,above,IBstimulus_absent,null,null,8174
3,106,2,vertical,vertical,null,null,null,3986,null,null,null,null,null,below,IBstimulus_absent,null,null,7996
3,106,3,horizontal,horizontal,no,red,reportColor,4823,8860,18558,8026,6580,6263,below,IBstimulus_absent,null,null,57104
3,107,0,horizontal,horizontal,null,null,null,3006.1,null,null,null,null,null,below,IBstimulus_absent,null,null,9099.445
3,107,1,horizontal,horizontal,null,null,null,2073.77,null,null,null,null,null,above,IBstimulus_absent,null,null,9749.095
3,107,2,horizontal,horizontal,null,null,null,1543.02,null,null,null,null,null,below,IBstimulus_absent,null,null,4984.97
3,107,3,vertical,vertical,yes,blue,reportColor,1922.96,4450.87,3637.68,3299.115,3051.625,2727.67,above,IBstimulus_present,red,right,23721.395
3,108,0,horizontal,horizontal,null,null,null,2309.3,null,null,null,null,null,above,IBstimulus_absent,null,null,7916.28
3,108,1,vertical,vertical,null,null,null,1875.905,null,null,null,null,null,above,IBstimulus_absent,null,null,6761.345
3,108,2,horizontal,horizontal,null,null,null,1725.83,null,null,null,null,null,above,IBstimulus_absent,null,null,6748.585
3,108,3,vertical,vertical,no,blue,reportColor,1539.135,4796.305,6003.91,8716.74,4015.645,5503.35,above,IBstimulus_absent,null,null,35679.97
3,109,0,vertical,vertical,null,null,null,3371.885,null,null,null,null,null,above,IBstimulus_absent,null,null,9077.665
3,109,1,vertical,vertical,null,null,null,3180.505,null,null,null,null,null,above,IBstimulus_absent,null,null,7179.215
3,109,2,horizontal,horizontal,null,null,null,1909.36,null,null,null,null,null,below,IBstimulus_absent,null,null,5336.49
3,109,3,vertical,vertical,no,blue,reportColor,4008.33,4018.86,6894.175,7322.45,4457.76,11666.27,below,IBstimulus_absent,null,null,41846.605
3,110,0,vertical,vertical,null,null,null,4847.385,null,null,null,null,null,above,IBstimulus_absent,null,null,10389.035
3,110,1,vertical,vertical,null,null,null,2064.17,null,null,null,null,null,below,IBstimulus_absent,null,null,7978.815
3,110,2,horizontal,horizontal,null,null,null,1985.895,null,null,null,null,null,below,IBstimulus_absent,null,null,5935.57
3,110,3,vertical,horizontal,yes,blue,reportColor,2257.67,12902.695,8513.41,7912.51,4529.14,12236.825,below,IBstimulus_present,blue,right,52647.885
3,111,0,horizontal,vertical,null,null,null,4763.415,null,null,null,null,null,below,IBstimulus_absent,null,null,87676.57
3,111,1,horizontal,horizontal,null,null,null,2666.34,null,null,null,null,null,above,IBstimulus_absent,null,null,7297.655
3,111,2,horizontal,horizontal,null,null,null,2611.045,null,null,null,null,null,above,IBstimulus_absent,null,null,6236.64
3,111,3,horizontal,horizontal,no,blue,reportColor,1786.445,3689.85,10966.025,6471.26,5957.345,20623.68,below,IBstimulus_present,blue,left,86128.02
3,112,0,vertical,vertical,null,null,null,4446.355,null,null,null,null,null,above,IBstimulus_absent,null,null,10079.255
3,112,1,vertical,vertical,null,null,null,2341.735,null,null,null,null,null,above,IBstimulus_absent,null,null,5832.675
3,112,2,vertical,vertical,null,null,null,1761.875,null,null,null,null,null,above,IBstimulus_absent,null,null,5000.68
3,112,3,horizontal,horizontal,no,red,reportColor,2217.395,9040.78,9725.505,11075.46,3596.88,3622.94,above,IBstimulus_absent,null,null,43673.93
3,113,0,horizontal,horizontal,null,null,null,3153.99,null,null,null,null,null,below,IBstimulus_absent,null,null,10950.895
3,113,1,vertical,vertical,null,null,null,2550.260001,null,null,null,null,null,above,IBstimulus_absent,null,null,6293.92
3,113,2,vertical,vertical,null,null,null,1808.665001,null,null,null,null,null,above,IBstimulus_absent,null,null,5606.315
3,113,3,horizontal,horizontal,no,blue,reportColor,1977.42,4791.44,4815.845001,7526.550001,3319.035,3960.395,below,IBstimulus_absent,null,null,29561.825
3,114,0,vertical,vertical,null,null,null,3019,null,null,null,null,null,below,IBstimulus_absent,null,null,12893
3,114,1,vertical,vertical,null,null,null,2442,null,null,null,null,null,below,IBstimulus_absent,null,null,7167
3,114,2,vertical,vertical,null,null,null,3182,null,null,null,null,null,below,IBstimulus_absent,null,null,7305
3,114,3,horizontal,horizontal,no,blue,reportColor,2192,6405,10859,5091,5266,7885,above,IBstimulus_absent,null,null,42404
3,115,0,horizontal,vertical,null,null,null,4843.085,null,null,null,null,null,below,IBstimulus_absent,null,null,15117.685
3,115,1,vertical,vertical,null,null,null,3404.765,null,null,null,null,null,above,IBstimulus_absent,null,null,7308.64
3,115,2,horizontal,horizontal,null,null,null,1976.475,null,null,null,null,null,below,IBstimulus_absent,null,null,5302.9
3,115,3,horizontal,horizontal,no,blue,reportColor,2790.925,5047.495,15271.765,10815.45,4711.615,12047.625,below,IBstimulus_present,blue,right,53955.925
3,116,0,horizontal,horizontal,null,null,null,4791.575,null,null,null,null,null,above,IBstimulus_absent,null,null,14278.345
3,116,1,horizontal,horizontal,null,null,null,3055.955,null,null,null,null,null,above,IBstimulus_absent,null,null,23620.615
3,116,2,vertical,vertical,null,null,null,4625.845,null,null,null,null,null,below,IBstimulus_absent,null,null,7988.445
3,116,3,horizontal,horizontal,yes,blue,reportColor,2923.69,5434.665,3048.98,6118.13,4805.53,6878.235,above,IBstimulus_present,blue,right,48543.2
3,117,0,horizontal,horizontal,null,null,null,3508.27,null,null,null,null,null,above,IBstimulus_absent,null,null,9495.85
3,117,1,vertical,vertical,null,null,null,2364.775,null,null,null,null,null,below,IBstimulus_absent,null,null,5572.23
3,117,2,vertical,vertical,null,null,null,2117.52,null,null,null,null,null,below,IBstimulus_absent,null,null,5300.815
3,117,3,horizontal,horizontal,no,blue,reportColor,2190.195,2295.64,5871.385,4855.46,8471.925,3821.105,below,IBstimulus_absent,null,null,30958.19
3,118,0,vertical,vertical,null,null,null,4363.66,null,null,null,null,null,above,IBstimulus_absent,null,null,18062.5
3,118,1,horizontal,horizontal,null,null,null,3014.655,null,null,null,null,null,above,IBstimulus_absent,null,null,10857.79
3,118,2,horizontal,horizontal,null,null,null,1563.48,null,null,null,null,null,below,IBstimulus_absent,null,null,9655.095
3,118,3,horizontal,horizontal,no,blue,reportColor,1520.04,8541.895,16433.08,9313.67,4592.06,6774.905,below,IBstimulus_absent,null,null,50824.79
3,119,0,horizontal,horizontal,null,null,null,2956.935,null,null,null,null,null,above,IBstimulus_absent,null,null,11428.98
3,119,1,horizontal,horizontal,null,null,null,1496.305,null,null,null,null,null,above,IBstimulus_absent,null,null,5658.475
3,119,2,horizontal,horizontal,null,null,null,2221.795,null,null,null,null,null,below,IBstimulus_absent,null,null,5370.78
3,119,3,horizontal,vertical,yes,red,reportColor,2301.96,3093.705,2073.58,5333.69,2517.55,3071.79,above,IBstimulus_present,red,left,22886.395
3,120,0,vertical,vertical,null,null,null,3540.91,null,null,null,null,null,below,IBstimulus_absent,null,null,9128.46
3,120,1,horizontal,horizontal,null,null,null,1871.76,null,null,null,null,null,above,IBstimulus_absent,null,null,7884.635
3,120,2,vertical,vertical,null,null,null,2266.415,null,null,null,null,null,above,IBstimulus_absent,null,null,4975.425
3,120,3,horizontal,horizontal,yes,blue,reportColor,4226.42,4320.48,2297,8662.365,3080.455,3961.79,above,IBstimulus_present,blue,left,29176.16
3,121,0,vertical,vertical,null,null,null,1917,null,null,null,null,null,below,IBstimulus_absent,null,null,9988
3,121,1,horizontal,horizontal,null,null,null,1843,null,null,null,null,null,below,IBstimulus_absent,null,null,6109
3,121,2,horizontal,horizontal,null,null,null,2276,null,null,null,null,null,above,IBstimulus_absent,null,null,7255
3,121,3,horizontal,horizontal,no,red,reportColor,2037,7050,9485,7870,3344,5556,above,IBstimulus_present,red,left,39669
3,122,0,vertical,vertical,null,null,null,2757.24,null,null,null,null,null,above,IBstimulus_absent,null,null,12502.29
3,122,1,vertical,vertical,null,null,null,2412.605,null,null,null,null,null,above,IBstimulus_absent,null,null,6735.475
3,122,2,vertical,vertical,null,null,null,1625.51,null,null,null,null,null,above,IBstimulus_absent,null,null,5158.31
3,122,3,vertical,horizontal,yes,blue,reportColor,2306.485,5889.155,14405.17,6120.13,4320.99,5551.085,below,IBstimulus_present,red,right,42300.415
3,123,0,horizontal,horizontal,null,null,null,3618.54,null,null,null,null,null,above,IBstimulus_absent,null,null,11570.57
3,123,1,vertical,horizontal,null,null,null,7271.63,null,null,null,null,null,above,IBstimulus_absent,null,null,10286.405
3,123,2,vertical,vertical,null,null,null,2368.275,null,null,null,null,null,above,IBstimulus_absent,null,null,25745.74
3,123,3,horizontal,horizontal,yes,blue,reportColor,2757.27,4044.86,3114.77,2665.68,4471.815,6732.735,below,IBstimulus_absent,null,null,26886.665
3,124,0,vertical,vertical,null,null,null,4293.785,null,null,null,null,null,above,IBstimulus_absent,null,null,10594.74
3,124,1,horizontal,horizontal,null,null,null,2429.26,null,null,null,null,null,below,IBstimulus_absent,null,null,6232.63
3,124,2,horizontal,horizontal,null,null,null,2900.42,null,null,null,null,null,below,IBstimulus_absent,null,null,6390.34
3,124,3,horizontal,horizontal,yes,blue,reportColor,3141.565,3639.555,5804.735,8276.39,2953.075,6080.755,above,IBstimulus_present,blue,left,33423.63
3,125,0,horizontal,horizontal,null,null,null,3145.91,null,null,null,null,null,below,IBstimulus_absent,null,null,9277.09
3,125,1,horizontal,horizontal,null,null,null,2467.82,null,null,null,null,null,below,IBstimulus_absent,null,null,14478.62
3,125,2,horizontal,horizontal,null,null,null,2861.065,null,null,null,null,null,above,IBstimulus_absent,null,null,7174.6
3,125,3,vertical,vertical,yes,blue,reportColor,1781.495,8048.19,7611.655,5353.925,3560.33,5380.095,below,IBstimulus_present,blue,right,35159.645
3,126,0,horizontal,null,null,null,null,null,null,null,null,null,null,above,IBstimulus_absent,null,null,
3,126,1,vertical,null,null,null,null,null,null,null,null,null,null,above,IBstimulus_absent,null,null,
3,126,2,horizontal,null,null,null,null,null,null,null,null,null,null,below,IBstimulus_absent,null,null,
3,126,3,vertical,null,null,null,reportColor,null,null,null,null,null,null,above,IBstimulus_present,blue,right,
3,127,0,horizontal,horizontal,null,null,null,2925,null,null,null,null,null,below,IBstimulus_absent,null,null,9696
3,127,1,horizontal,horizontal,null,null,null,1776,null,null,null,null,null,above,IBstimulus_absent,null,null,6154
3,127,2,horizontal,horizontal,null,null,null,2082,null,null,null,null,null,above,IBstimulus_absent,null,null,7006
3,127,3,horizontal,horizontal,yes,blue,reportColor,7185,3116,4702,4814,2711,5771,above,IBstimulus_present,blue,left,32777
3,128,0,vertical,vertical,null,null,null,2348.48,null,null,null,null,null,below,IBstimulus_absent,null,null,17685.21
3,128,1,horizontal,horizontal,null,null,null,1425.03,null,null,null,null,null,above,IBstimulus_absent,null,null,7404.815
3,128,2,horizontal,horizontal,null,null,null,1651.83,null,null,null,null,null,below,IBstimulus_absent,null,null,5423.1
3,128,3,horizontal,horizontal,yes,blue,reportColor,1520.945,4407.92,7087.24,4768.115,3287.775,7527.855,above,IBstimulus_present,blue,left,32079.93
3,129,0,horizontal,horizontal,null,null,null,5460.7,null,null,null,null,null,below,IBstimulus_absent,null,null,9963.515
3,129,1,vertical,vertical,null,null,null,2489.175,null,null,null,null,null,above,IBstimulus_absent,null,null,7318.61
3,129,2,vertical,horizontal,null,null,null,1723.35,null,null,null,null,null,above,IBstimulus_absent,null,null,5531.305
3,129,3,vertical,vertical,yes,red,reportColor,1877.03,2469.29,1528.345,4138.315,2318.555,2873.78,above,IBstimulus_present,red,left,19514.11
3,130,0,vertical,vertical,null,null,null,4293.785,null,null,null,null,null,above,IBstimulus_absent,null,null,10594.74
3,130,1,horizontal,horizontal,null,null,null,2429.26,null,null,null,null,null,below,IBstimulus_absent,null,null,6232.63
3,130,2,horizontal,horizontal,null,null,null,2900.42,null,null,null,null,null,below,IBstimulus_absent,null,null,6390.34
3,130,3,horizontal,horizontal,yes,blue,reportColor,3141.565,3639.555,5804.735,8276.39,2953.075,6080.755,above,IBstimulus_present,blue,left,33423.63
3,131,0,horizontal,horizontal,null,null,null,10956,null,null,null,null,null,above,IBstimulus_absent,null,null,20475
3,131,1,horizontal,horizontal,null,null,null,4724,null,null,null,null,null,below,IBstimulus_absent,null,null,9491
3,131,2,horizontal,vertical,null,null,null,4760,null,null,null,null,null,above,IBstimulus_absent,null,null,8224
3,131,3,horizontal,horizontal,no,blue,reportColor,4367,7444,16401,84998,8480,10071,below,IBstimulus_absent,null,null,135175
3,132,0,horizontal,horizontal,null,null,null,2414.035,null,null,null,null,null,above,IBstimulus_absent,null,null,9403.475
3,132,1,horizontal,horizontal,null,null,null,2183.555,null,null,null,null,null,below,IBstimulus_absent,null,null,5480.99
3,132,2,vertical,vertical,null,null,null,1786.34,null,null,null,null,null,below,IBstimulus_absent,null,null,4621.425
3,132,3,horizontal,horizontal,yes,blue,reportColor,2241.135,4046.3,3275.82,4641.5,3717.475,4744.355,below,IBstimulus_present,blue,left,26433.52
3,133,0,vertical,vertical,null,null,null,2202.05,null,null,null,null,null,below,IBstimulus_absent,null,null,7090.46
3,133,1,horizontal,horizontal,null,null,null,1686.975,null,null,null,null,null,below,IBstimulus_absent,null,null,6707.015
3,133,2,horizontal,horizontal,null,null,null,1488.885,null,null,null,null,null,below,IBstimulus_absent,null,null,4610.02
3,133,3,horizontal,horizontal,no,red,reportColor,1956.725,3015.89,9796.35,7131.015,4804.455,4568.11,below,IBstimulus_absent,null,null,34154.455
3,134,0,horizontal,horizontal,null,null,null,3436.36,null,null,null,null,null,below,IBstimulus_absent,null,null,10618.575
3,134,1,horizontal,horizontal,null,null,null,1809.23,null,null,null,null,null,above,IBstimulus_absent,null,null,10686.885
3,134,2,horizontal,horizontal,null,null,null,2377.99,null,null,null,null,null,below,IBstimulus_absent,null,null,5433.83
3,134,3,vertical,vertical,yes,red,reportColor,2218.77,7950.945,5208.24,5679.005,8246.045,5111.61,above,IBstimulus_present,red,right,37617.91
3,135,0,horizontal,horizontal,null,null,null,3908.795,null,null,null,null,null,below,IBstimulus_absent,null,null,10534.27
3,135,1,vertical,vertical,null,null,null,20694.8,null,null,null,null,null,above,IBstimulus_absent,null,null,25669.185
3,135,2,vertical,vertical,null,null,null,1638.505,null,null,null,null,null,below,IBstimulus_absent,null,null,6334.615
3,135,3,horizontal,horizontal,no,blue,reportColor,1563.54,4503.93,7095.05,4495.55,3231.615,5751.555,below,IBstimulus_present,red,left,33820.165
3,136,0,horizontal,horizontal,null,null,null,2956.935,null,null,null,null,null,above,IBstimulus_absent,null,null,11428.98
3,136,1,horizontal,horizontal,null,null,null,1496.305,null,null,null,null,null,above,IBstimulus_absent,null,null,5658.475
3,136,2,horizontal,horizontal,null,null,null,2221.795,null,null,null,null,null,below,IBstimulus_absent,null,null,5370.78
3,136,3,horizontal,vertical,yes,red,reportColor,2301.96,3093.705,2073.58,5333.69,2517.55,3071.79,above,IBstimulus_present,red,left,22886.395
3,137,0,vertical,vertical,null,null,null,3586.895,null,null,null,null,null,below,IBstimulus_absent,null,null,10585.175
3,137,1,vertical,vertical,null,null,null,1910.095,null,null,null,null,null,below,IBstimulus_absent,null,null,9005.525
3,137,2,vertical,vertical,null,null,null,1543.74,null,null,null,null,null,above,IBstimulus_absent,null,null,5476.83
3,137,3,vertical,vertical,no,red,reportColor,1764.26,4601.785,3576.8,9395.795,2879.55,4228.44,below,IBstimulus_present,red,left,30082.05
3,138,0,vertical,vertical,null,null,null,2620.445,null,null,null,null,null,below,IBstimulus_absent,null,null,8269.99
3,138,1,horizontal,horizontal,null,null,null,2333.05,null,null,null,null,null,below,IBstimulus_absent,null,null,5927.01
3,138,2,horizontal,vertical,null,null,null,1473.055,null,null,null,null,null,above,IBstimulus_absent,null,null,4871.195
3,138,3,horizontal,horizontal,yes,blue,reportColor,1348.705,3703.705,10466.795,4615.42,3044.705,4490.045,above,IBstimulus_absent,null,null,30619.955
3,139,0,vertical,vertical,null,null,null,3218.225,null,null,null,null,null,above,IBstimulus_absent,null,null,9206.505
3,139,1,horizontal,horizontal,null,null,null,1815.355,null,null,null,null,null,above,IBstimulus_absent,null,null,6345.095
3,139,2,horizontal,horizontal,null,null,null,1512.19,null,null,null,null,null,below,IBstimulus_absent,null,null,4575.85
3,139,3,vertical,vertical,no,blue,reportColor,1534.265,3525.215,7147.585,4315.86,2837.36,6699.19,below,IBstimulus_absent,null,null,29291.66
3,140,0,horizontal,horizontal,null,null,null,5103.46,null,null,null,null,null,below,IBstimulus_absent,null,null,14882.01
3,140,1,vertical,vertical,null,null,null,1614.355,null,null,null,null,null,above,IBstimulus_absent,null,null,7842.55
3,140,2,horizontal,horizontal,null,null,null,1619.705,null,null,null,null,null,below,IBstimulus_absent,null,null,4754.945
3,140,3,vertical,horizontal,yes,red,reportColor,1517.29,3876.71,1303.7,9751.99,4024.915,7040.69,above,IBstimulus_present,red,right,30596.655
3,141,0,horizontal,horizontal,null,null,null,2674.875,null,null,null,null,null,below,IBstimulus_absent,null,null,8065.02
3,141,1,vertical,vertical,null,null,null,3135.385,null,null,null,null,null,above,IBstimulus_absent,null,null,6603.18
3,141,2,horizontal,horizontal,null,null,null,1906.39,null,null,null,null,null,above,IBstimulus_absent,null,null,5447.87
3,141,3,horizontal,horizontal,yes,blue,reportColor,4013.735,9105.375,4363.87,4697.21,6659.645,6203.625,below,IBstimulus_present,blue,right,38320.645
3,142,0,vertical,vertical,null,null,null,9275,null,null,null,null,null,above,IBstimulus_absent,null,null,21461
3,142,1,horizontal,horizontal,null,null,null,2442,null,null,null,null,null,above,IBstimulus_absent,null,null,8411
3,142,2,horizontal,horizontal,null,null,null,3361,null,null,null,null,null,below,IBstimulus_absent,null,null,7150
3,142,3,horizontal,horizontal,no,blue,reportColor,3770,9192,10543,9416,5952,7824,above,IBstimulus_absent,null,null,50929
3,143,0,horizontal,horizontal,null,null,null,2767.61,null,null,null,null,null,below,IBstimulus_absent,null,null,10504.585
3,143,1,horizontal,horizontal,null,null,null,2067.705,null,null,null,null,null,below,IBstimulus_absent,null,null,7746.755
3,143,2,horizontal,horizontal,null,null,null,3416.195,null,null,null,null,null,above,IBstimulus_absent,null,null,8533.115
3,143,3,vertical,vertical,no,blue,reportColor,2345.265,6942.83,9339.41,5738.14,3524.515,6273.8,above,IBstimulus_present,red,right,38419.81
3,144,0,horizontal,horizontal,null,null,null,4791.575,null,null,null,null,null,above,IBstimulus_absent,null,null,14278.345
3,144,1,horizontal,horizontal,null,null,null,3055.955,null,null,null,null,null,above,IBstimulus_absent,null,null,23620.615
3,144,2,vertical,vertical,null,null,null,4625.845,null,null,null,null,null,below,IBstimulus_absent,null,null,7988.445
3,144,3,horizontal,horizontal,yes,blue,reportColor,2923.69,5434.665,3048.98,6118.13,4805.53,6878.235,above,IBstimulus_present,blue,right,48543.2
3,145,0,horizontal,horizontal,null,null,null,2640.41,null,null,null,null,null,above,IBstimulus_absent,null,null,7187.265
3,145,1,horizontal,horizontal,null,null,null,1331.28,null,null,null,null,null,above,IBstimulus_absent,null,null,8088.505
3,145,2,horizontal,horizontal,null,null,null,1704.205,null,null,null,null,null,above,IBstimulus_absent,null,null,5138.905
3,145,3,horizontal,horizontal,no,blue,reportColor,1416.05,8317.32,5039.145,5254.59,4695.24,7592.57,above,IBstimulus_absent,null,null,35111.3
3,146,0,horizontal,horizontal,null,null,null,6121,null,null,null,null,null,below,IBstimulus_absent,null,null,15958
3,146,1,horizontal,horizontal,null,null,null,4261,null,null,null,null,null,above,IBstimulus_absent,null,null,9860
3,146,2,horizontal,horizontal,null,null,null,2097,null,null,null,null,null,below,IBstimulus_absent,null,null,5327
3,146,3,horizontal,vertical,yes,blue,reportColor,2585,3974,5210,5112,2782,4862,above,IBstimulus_present,blue,left,27384
3,147,0,horizontal,horizontal,null,null,null,3103,null,null,null,null,null,above,IBstimulus_absent,null,null,10187
3,147,1,vertical,vertical,null,null,null,1548,null,null,null,null,null,below,IBstimulus_absent,null,null,5427
3,147,2,horizontal,horizontal,null,null,null,1349,null,null,null,null,null,below,IBstimulus_absent,null,null,4295
3,147,3,vertical,vertical,yes,blue,reportColor,1123,3539,3329,4113,3361,3972,below,IBstimulus_present,blue,left,22324
3,148,0,vertical,vertical,null,null,null,2873.355,null,null,null,null,null,below,IBstimulus_absent,null,null,8799.87
3,148,1,horizontal,horizontal,null,null,null,1685.86,null,null,null,null,null,above,IBstimulus_absent,null,null,8438.655
3,148,2,vertical,vertical,null,null,null,1338.99,null,null,null,null,null,below,IBstimulus_absent,null,null,4107.075
3,148,3,horizontal,horizontal,yes,red,reportColor,1421.655,9366.99,1506.905,12752.915,19740.355,12343.4,below,IBstimulus_present,red,left,59788.89
3,149,0,horizontal,horizontal,null,null,null,2585.52,null,null,null,null,null,above,IBstimulus_absent,null,null,8910.245
3,149,1,horizontal,horizontal,null,null,null,1737.66,null,null,null,null,null,above,IBstimulus_absent,null,null,8183.82
3,149,2,vertical,vertical,null,null,null,2387.9,null,null,null,null,null,below,IBstimulus_absent,null,null,8440.955
3,149,3,vertical,vertical,no,blue,reportColor,1715.585,5664.865,5782.915,19866.095,4697.18,5447.335,below,IBstimulus_present,red,left,49502.9
3,150,0,vertical,null,null,null,null,null,null,null,null,null,null,above,IBstimulus_absent,null,null,
3,150,1,vertical,null,null,null,null,null,null,null,null,null,null,above,IBstimulus_absent,null,null,
3,150,2,horizontal,null,null,null,null,null,null,null,null,null,null,below,IBstimulus_absent,null,null,
3,150,3,vertical,null,null,null,reportColor,null,null,null,null,null,null,below,IBstimulus_present,red,left,
3,151,0,vertical,vertical,null,null,null,4669.425,null,null,null,null,null,below,IBstimulus_absent,null,null,215458.685
3,151,1,vertical,vertical,null,null,null,1565.485,null,null,null,null,null,below,IBstimulus_absent,null,null,5018.435
3,151,2,vertical,vertical,null,null,null,1336.35,null,null,null,null,null,below,IBstimulus_absent,null,null,4725.185
3,151,3,horizontal,horizontal,no,blue,reportColor,1324.575,5397.865,6849.645,3669.7,3116.09,3233.74,below,IBstimulus_absent,null,null,26856.615
3,152,0,horizontal,horizontal,null,null,null,6466.49,null,null,null,null,null,below,IBstimulus_absent,null,null,16185.355
3,152,1,horizontal,horizontal,null,null,null,2873.265,null,null,null,null,null,below,IBstimulus_absent,null,null,8019.33
3,152,2,horizontal,horizontal,null,null,null,2626.83,null,null,null,null,null,above,IBstimulus_absent,null,null,8317.8
3,152,3,vertical,vertical,yes,blue,reportColor,3428.645,6397.91,14248.99,12423.585,5995.385,11254.195,above,IBstimulus_present,red,right,57385.125
3,153,0,vertical,vertical,null,null,null,3540.91,null,null,null,null,null,below,IBstimulus_absent,null,null,9128.46
3,153,1,horizontal,horizontal,null,null,null,1871.76,null,null,null,null,null,above,IBstimulus_absent,null,null,7884.635
3,153,2,vertical,vertical,null,null,null,2266.415,null,null,null,null,null,above,IBstimulus_absent,null,null,4975.425
3,153,3,horizontal,horizontal,yes,blue,reportColor,4226.42,4320.48,2297,8662.365,3080.455,3961.79,above,IBstimulus_present,blue,left,29176.16
3,154,0,horizontal,horizontal,null,null,null,2601.695,null,null,null,null,null,above,IBstimulus_absent,null,null,7582.605
3,154,1,horizontal,horizontal,null,null,null,1656.325,null,null,null,null,null,above,IBstimulus_absent,null,null,8767.975
3,154,2,horizontal,horizontal,null,null,null,2179.735,null,null,null,null,null,above,IBstimulus_absent,null,null,5373.45
3,154,3,vertical,vertical,yes,red,reportColor,1412.535,3315.405,2420.285,4997,3486.96,3766.11,below,IBstimulus_present,red,right,26286.28
3,155,0,horizontal,horizontal,null,null,null,4766.54,null,null,null,null,null,below,IBstimulus_absent,null,null,15370.145
3,155,1,vertical,vertical,null,null,null,2872.255,null,null,null,null,null,above,IBstimulus_absent,null,null,11938.205
3,155,2,vertical,vertical,null,null,null,2568.04,null,null,null,null,null,above,IBstimulus_absent,null,null,5878.965
3,155,3,vertical,vertical,no,blue,reportColor,2630.84,5978.77,8042.605,8006.65,4334.955,7671.865,above,IBstimulus_present,blue,right,44583.965
3,156,0,vertical,vertical,null,null,null,3047.41,null,null,null,null,null,below,IBstimulus_absent,null,null,22852.02
3,156,1,horizontal,horizontal,null,null,null,2152.615,null,null,null,null,null,below,IBstimulus_absent,null,null,12013.395
3,156,2,vertical,horizontal,null,null,null,3532.79,null,null,null,null,null,above,IBstimulus_absent,null,null,7344.535
3,156,3,horizontal,horizontal,yes,red,reportColor,1807.325,14143.965,7185.97,5243.49,4755.15,5758.895,above,IBstimulus_present,red,left,44298.8
3,157,0,horizontal,horizontal,null,null,null,2361.195,null,null,null,null,null,above,IBstimulus_absent,null,null,8943.125
3,157,1,horizontal,horizontal,null,null,null,1751.365,null,null,null,null,null,above,IBstimulus_absent,null,null,6856.63
3,157,2,vertical,vertical,null,null,null,3348.835001,null,null,null,null,null,below,IBstimulus_absent,null,null,6471.115
3,157,3,horizontal,horizontal,no,blue,reportColor,1665.250001,3705.7,6469.804999,3218.374999,4092.204999,4890.02,below,IBstimulus_absent,null,null,26873.675
3,158,0,horizontal,horizontal,null,null,null,1998.545,null,null,null,null,null,below,IBstimulus_absent,null,null,10025.905
3,158,1,vertical,vertical,null,null,null,1458.865,null,null,null,null,null,above,IBstimulus_absent,null,null,8450.59
3,158,2,vertical,vertical,null,null,null,2335.795,null,null,null,null,null,above,IBstimulus_absent,null,null,5113.91
3,158,3,horizontal,horizontal,yes,red,reportColor,2783.79,3509.6,2339.84,8684.625,3441.69,4507.805,below,IBstimulus_present,red,right,28522.775
3,159,0,horizontal,vertical,null,null,null,2936.005,null,null,null,null,null,below,IBstimulus_absent,null,null,7884.61
3,159,1,vertical,vertical,null,null,null,4167.965,null,null,null,null,null,above,IBstimulus_absent,null,null,8097.105
3,159,2,horizontal,horizontal,null,null,null,1358.615,null,null,null,null,null,below,IBstimulus_absent,null,null,5005.365
3,159,3,vertical,vertical,no,red,reportColor,984.47,2609.595,33650.34,10969.575,3262.195,3610.88,below,IBstimulus_present,blue,right,57939.54
3,160,0,horizontal,horizontal,null,null,null,1927.47,null,null,null,null,null,below,IBstimulus_absent,null,null,14262.195
3,160,1,horizontal,horizontal,null,null,null,1325.4,null,null,null,null,null,below,IBstimulus_absent,null,null,6468.525
3,160,2,vertical,vertical,null,null,null,2518.085,null,null,null,null,null,above,IBstimulus_absent,null,null,6222.245
3,160,3,horizontal,horizontal,no,blue,reportColor,1530.965,4813.08,7667.445,4472.01,13019.56,4849.82,below,IBstimulus_absent,null,null,39822.685
3,161,0,vertical,vertical,null,null,null,3337.6,null,null,null,null,null,above,IBstimulus_absent,null,null,10218.935
3,161,1,vertical,vertical,null,null,null,2076.4,null,null,null,null,null,below,IBstimulus_absent,null,null,8193.195
3,161,2,vertical,vertical,null,null,null,1957.24,null,null,null,null,null,above,IBstimulus_absent,null,null,6600.915
3,161,3,horizontal,horizontal,no,blue,reportColor,1582.365,3379.92,6983.04,3774.91,3647.91,7713.225,above,IBstimulus_absent,null,null,31647.51
3,162,0,vertical,vertical,null,null,null,4669.425,null,null,null,null,null,below,IBstimulus_absent,null,null,215458.685
3,162,1,vertical,vertical,null,null,null,1565.485,null,null,null,null,null,below,IBstimulus_absent,null,null,5018.435
3,162,2,vertical,vertical,null,null,null,1336.35,null,null,null,null,null,below,IBstimulus_absent,null,null,4725.185
3,162,3,horizontal,horizontal,no,blue,reportColor,1324.575,5397.865,6849.645,3669.7,3116.09,3233.74,below,IBstimulus_absent,null,null,26856.615
3,163,0,vertical,vertical,null,null,null,4300.665,null,null,null,null,null,above,IBstimulus_absent,null,null,8447.775
3,163,1,vertical,vertical,null,null,null,3531.885,null,null,null,null,null,below,IBstimulus_absent,null,null,10778.925
3,163,2,horizontal,horizontal,null,null,null,1769.135,null,null,null,null,null,below,IBstimulus_absent,null,null,8169.985
3,163,3,vertical,vertical,yes,blue,reportColor,1325.245,4235.71,2480.845,3132.05,2712.68,3099.91,below,IBstimulus_present,blue,right,20111.61
3,164,0,horizontal,horizontal,null,null,null,2640.41,null,null,null,null,null,above,IBstimulus_absent,null,null,7187.265
3,164,1,horizontal,horizontal,null,null,null,1331.28,null,null,null,null,null,above,IBstimulus_absent,null,null,8088.505
3,164,2,horizontal,horizontal,null,null,null,1704.205,null,null,null,null,null,above,IBstimulus_absent,null,null,5138.905
3,164,3,horizontal,horizontal,no,blue,reportColor,1416.05,8317.32,5039.145,5254.59,4695.24,7592.57,above,IBstimulus_absent,null,null,35111.3
3,165,0,vertical,horizontal,null,null,null,4708.97,null,null,null,null,null,above,IBstimulus_absent,null,null,12078.925
3,165,1,vertical,vertical,null,null,null,1363.46,null,null,null,null,null,above,IBstimulus_absent,null,null,6348.325
3,165,2,vertical,vertical,null,null,null,1221.54,null,null,null,null,null,below,IBstimulus_absent,null,null,4456.505
3,165,3,horizontal,horizontal,yes,blue,reportColor,4563.72,4593.685,10801.35,8374.795,3024,4611.74,below,IBstimulus_present,blue,left,38967.785
3,166,0,vertical,vertical,null,null,null,2266.445,null,null,null,null,null,above,IBstimulus_absent,null,null,8664.175
3,166,1,horizontal,horizontal,null,null,null,5225.825,null,null,null,null,null,above,IBstimulus_absent,null,null,9971.2
3,166,2,vertical,vertical,null,null,null,1666.78,null,null,null,null,null,above,IBstimulus_absent,null,null,6074.43
3,166,3,horizontal,horizontal,yes,blue,reportColor,2131.825,5416.605,7529.205,4533.13,3148.825,5393.965,below,IBstimulus_absent,null,null,31789.725
3,167,0,horizontal,horizontal,null,null,null,2313.75,null,null,null,null,null,below,IBstimulus_absent,null,null,14633.81
3,167,1,horizontal,horizontal,null,null,null,1331.065,null,null,null,null,null,below,IBstimulus_absent,null,null,4599.355
3,167,2,vertical,vertical,null,null,null,1338.41,null,null,null,null,null,above,IBstimulus_absent,null,null,4056.99
3,167,3,horizontal,horizontal,yes,blue,reportColor,2005.395,11413.535,7364.49,6014.085,3702.205,5570.115,above,IBstimulus_present,blue,right,38676.39
3,168,0,vertical,vertical,null,null,null,5818.75,null,null,null,null,null,above,IBstimulus_absent,null,null,14312.695
3,168,1,horizontal,horizontal,null,null,null,4968.075,null,null,null,null,null,above,IBstimulus_absent,null,null,11612.685
3,168,2,horizontal,horizontal,null,null,null,4568.495,null,null,null,null,null,below,IBstimulus_absent,null,null,8453.88
3,168,3,horizontal,horizontal,no,red,reportColor,1947.085,10904.88,12888.57,9630.595,5082.855,7759.975,above,IBstimulus_absent,null,null,51801.49
3,169,0,vertical,vertical,null,null,null,4667.6,null,null,null,null,null,above,IBstimulus_absent,null,null,15688.04
3,169,1,vertical,vertical,null,null,null,2189.975,null,null,null,null,null,above,IBstimulus_absent,null,null,7035.775
3,169,2,horizontal,horizontal,null,null,null,1932.605,null,null,null,null,null,below,IBstimulus_absent,null,null,5775.345
3,169,3,vertical,vertical,no,blue,reportColor,1862.775,12731.605,9899.595,8007.63,4143.73,8219.81,below,IBstimulus_absent,null,null,49283.57
3,170,0,horizontal,horizontal,null,null,null,37.01499998,null,null,null,null,null,below,IBstimulus_absent,null,null,13438.39
3,170,1,vertical,vertical,null,null,null,3534.155,null,null,null,null,null,above,IBstimulus_absent,null,null,8340.975
3,170,2,vertical,vertical,null,null,null,231.705,null,null,null,null,null,below,IBstimulus_absent,null,null,18209.74
3,170,3,horizontal,horizontal,no,blue,reportColor,2472.525,4819.93,9166.09,6457.45,3655.605,7554.89,above,IBstimulus_absent,null,null,37402.8
3,171,0,horizontal,horizontal,null,null,null,3144.13,null,null,null,null,null,above,IBstimulus_absent,null,null,8422.435
3,171,1,horizontal,horizontal,null,null,null,907.755,null,null,null,null,null,below,IBstimulus_absent,null,null,9152.765
3,171,2,horizontal,horizontal,null,null,null,799.975,null,null,null,null,null,below,IBstimulus_absent,null,null,3704.54
3,171,3,vertical,vertical,yes,blue,reportColor,1154.665,5662.88,4942.45,3490.595,4755.95,3401.02,above,IBstimulus_absent,null,null,26121.16
3,172,0,horizontal,horizontal,null,null,null,3499.235,null,null,null,null,null,below,IBstimulus_absent,null,null,11563.225
3,172,1,horizontal,horizontal,null,null,null,2085.99,null,null,null,null,null,below,IBstimulus_absent,null,null,6005.55
3,172,2,vertical,vertical,null,null,null,2062.06,null,null,null,null,null,above,IBstimulus_absent,null,null,5696.645
3,172,3,vertical,vertical,yes,red,reportColor,2622.555,3550.945,2844.405,6155.34,4470.15,5070.305,below,IBstimulus_present,red,left,28583.56
3,173,0,horizontal,horizontal,null,null,null,2863.32,null,null,null,null,null,below,IBstimulus_absent,null,null,10638.7
3,173,1,vertical,vertical,null,null,null,1465.485,null,null,null,null,null,below,IBstimulus_absent,null,null,5164.01
3,173,2,horizontal,horizontal,null,null,null,1480.725,null,null,null,null,null,above,IBstimulus_absent,null,null,4879.635
3,173,3,horizontal,horizontal,no,red,reportColor,4372.505,4311.795,8503.575,6527.495,3303.275,2768.16,below,IBstimulus_present,blue,right,33040.665
3,174,0,horizontal,horizontal,null,null,null,3627,null,null,null,null,null,below,IBstimulus_absent,null,null,8859.85
3,174,1,vertical,vertical,null,null,null,2619.76,null,null,null,null,null,below,IBstimulus_absent,null,null,6360.02
3,174,2,horizontal,horizontal,null,null,null,1945.29,null,null,null,null,null,above,IBstimulus_absent,null,null,5544.89
3,174,3,vertical,vertical,yes,blue,reportColor,1825.2,3363.58,5899.175,4338.79,2930.1,4641.715,above,IBstimulus_present,blue,right,26561.45
3,175,0,vertical,vertical,null,null,null,2887.835,null,null,null,null,null,above,IBstimulus_absent,null,null,18478.46
3,175,1,horizontal,horizontal,null,null,null,1864.26,null,null,null,null,null,below,IBstimulus_absent,null,null,6150.425
3,175,2,vertical,vertical,null,null,null,2392.21,null,null,null,null,null,below,IBstimulus_absent,null,null,5748.815
3,175,3,horizontal,horizontal,yes,blue,reportColor,2240.75,3050.805,7535.45,3235.87,3970.545,16503.81,above,IBstimulus_present,red,right,39932.41
3,176,0,horizontal,horizontal,null,null,null,2853.82,null,null,null,null,null,above,IBstimulus_absent,null,null,8464.37
3,176,1,horizontal,horizontal,null,null,null,2231.475,null,null,null,null,null,below,IBstimulus_absent,null,null,13550.99
3,176,2,vertical,vertical,null,null,null,1880.785,null,null,null,null,null,below,IBstimulus_absent,null,null,5897.185
3,176,3,vertical,vertical,yes,blue,reportColor,1985.065,7528.975,7649.545,3727.745,3808.195,4446.665,above,IBstimulus_present,red,left,32424.84
3,177,0,vertical,vertical,null,null,null,2623.025,null,null,null,null,null,below,IBstimulus_absent,null,null,8326.295
3,177,1,horizontal,horizontal,null,null,null,2037.515,null,null,null,null,null,below,IBstimulus_absent,null,null,5825.88
3,177,2,horizontal,horizontal,null,null,null,3095.82,null,null,null,null,null,below,IBstimulus_absent,null,null,6709.805
3,177,3,horizontal,horizontal,yes,red,reportColor,2923.9,3568.24,1910.535,7445.1,3288.995,4091.3,below,IBstimulus_present,red,right,26481.745
3,178,0,horizontal,horizontal,null,null,null,2797.37,null,null,null,null,null,below,IBstimulus_absent,null,null,8581.255
3,178,1,vertical,vertical,null,null,null,2010.305,null,null,null,null,null,below,IBstimulus_absent,null,null,6493.62
3,178,2,vertical,vertical,null,null,null,1612.545,null,null,null,null,null,above,IBstimulus_absent,null,null,4578.76
3,178,3,vertical,vertical,yes,blue,reportColor,1540.095,10226.535,10807.81,5507.115,3594.095,4364.32,above,IBstimulus_present,red,right,38972.99
3,179,0,vertical,null,null,null,null,null,null,null,null,null,null,above,IBstimulus_absent,null,null,
3,179,1,horizontal,null,null,null,null,null,null,null,null,null,null,below,IBstimulus_absent,null,null,
3,179,2,vertical,null,null,null,null,null,null,null,null,null,null,below,IBstimulus_absent,null,null,
3,179,3,vertical,null,null,null,reportColor,null,null,null,null,null,null,above,IBstimulus_present,red,left,
3,180,0,horizontal,horizontal,null,null,null,3354.145,null,null,null,null,null,above,IBstimulus_absent,null,null,13219.67
3,180,1,horizontal,horizontal,null,null,null,6706.245,null,null,null,null,null,above,IBstimulus_absent,null,null,14333.5
3,180,2,vertical,vertical,null,null,null,3986.37,null,null,null,null,null,below,IBstimulus_absent,null,null,8495.63
3,180,3,horizontal,horizontal,yes,red,reportColor,3368.425,8885.75,2120.22,12878.215,4361.305,6351.43,above,IBstimulus_present,red,left,49370.49
3,181,0,horizontal,horizontal,null,null,null,8222.69,null,null,null,null,null,above,IBstimulus_absent,null,null,20649.55
3,181,1,horizontal,horizontal,null,null,null,4756.895,null,null,null,null,null,above,IBstimulus_absent,null,null,10603.67
3,181,2,horizontal,horizontal,null,null,null,4190.91,null,null,null,null,null,above,IBstimulus_absent,null,null,8895.175
3,181,3,vertical,vertical,no,blue,reportColor,3323.03,53954.3,36381.995,8111.96,4920.89,7825.06,below,IBstimulus_present,blue,left,119529.335
3,182,0,vertical,horizontal,null,null,null,4339.5,null,null,null,null,null,below,IBstimulus_absent,null,null,43928.7
3,182,1,vertical,vertical,null,null,null,5347.9,null,null,null,null,null,above,IBstimulus_absent,null,null,16213
3,182,2,horizontal,horizontal,null,null,null,3141.4,null,null,null,null,null,below,IBstimulus_absent,null,null,11529.6
3,182,3,horizontal,vertical,no,red,reportColor,5164,11853.2,15841.7,19571.1,24654.1,14283.2,below,IBstimulus_present,blue,left,98493.5
3,183,0,horizontal,horizontal,null,null,null,2388.515,null,null,null,null,null,below,IBstimulus_absent,null,null,9418.835
3,183,1,vertical,vertical,null,null,null,2081.81,null,null,null,null,null,above,IBstimulus_absent,null,null,4956.825
3,183,2,vertical,vertical,null,null,null,1727.005,null,null,null,null,null,below,IBstimulus_absent,null,null,5661.18
3,183,3,vertical,vertical,yes,red,reportColor,1456.27,5623.445,1675.66,7057.085,3363.37,2961.995,below,IBstimulus_present,red,left,24953.77
3,184,0,vertical,vertical,null,null,null,4768.15,null,null,null,null,null,above,IBstimulus_absent,null,null,10570.715
3,184,1,vertical,vertical,null,null,null,2765.76,null,null,null,null,null,below,IBstimulus_absent,null,null,8591.655
3,184,2,horizontal,horizontal,null,null,null,2902.05,null,null,null,null,null,above,IBstimulus_absent,null,null,7327.92
3,184,3,horizontal,horizontal,yes,blue,reportColor,2460.815,4542.86,7257.945,7609.685,4282.27,20027.05,above,IBstimulus_present,blue,left,49987.395
3,185,0,vertical,vertical,null,null,null,3057.925,null,null,null,null,null,above,IBstimulus_absent,null,null,10476.82
3,185,1,horizontal,horizontal,null,null,null,2485.675,null,null,null,null,null,below,IBstimulus_absent,null,null,6757.55
3,185,2,horizontal,horizontal,null,null,null,1822.065,null,null,null,null,null,below,IBstimulus_absent,null,null,6164.185001
3,185,3,horizontal,horizontal,no,blue,reportColor,2644.94,4111.155,10297.975,5674.405,4470.504999,5516.725,above,IBstimulus_absent,null,null,36909.695
3,186,0,vertical,vertical,null,null,null,2254,null,null,null,null,null,below,IBstimulus_absent,null,null,12932
3,186,1,horizontal,horizontal,null,null,null,2359,null,null,null,null,null,above,IBstimulus_absent,null,null,8181
3,186,2,vertical,vertical,null,null,null,2127,null,null,null,null,null,below,IBstimulus_absent,null,null,7096
3,186,3,vertical,vertical,no,blue,reportColor,1270,5159,8831,7303,4278,6296,below,IBstimulus_absent,null,null,35984
3,187,0,vertical,vertical,null,null,null,1739.48,null,null,null,null,null,below,IBstimulus_absent,null,null,7907.005
3,187,1,horizontal,horizontal,null,null,null,2799.085,null,null,null,null,null,below,IBstimulus_absent,null,null,5570.565
3,187,2,horizontal,horizontal,null,null,null,1642.6,null,null,null,null,null,below,IBstimulus_absent,null,null,6141.06
3,187,3,horizontal,horizontal,no,blue,reportColor,1626.175,4761.165,5827.53,4480.845,3503.83,4580.91,below,IBstimulus_absent,null,null,28686.325
3,188,0,horizontal,horizontal,null,null,null,3970,null,null,null,null,null,above,IBstimulus_absent,null,null,13369
3,188,1,vertical,vertical,null,null,null,3958,null,null,null,null,null,above,IBstimulus_absent,null,null,14367
3,188,2,horizontal,horizontal,null,null,null,2530,null,null,null,null,null,above,IBstimulus_absent,null,null,10061
3,188,3,horizontal,horizontal,yes,red,reportColor,4400,4408,7471,11086,4082,8153,below,IBstimulus_present,red,left,45422
3,189,0,horizontal,horizontal,null,null,null,6046.89,null,null,null,null,null,above,IBstimulus_absent,null,null,14486.285
3,189,1,vertical,vertical,null,null,null,2415.48,null,null,null,null,null,above,IBstimulus_absent,null,null,8979.88
3,189,2,vertical,vertical,null,null,null,2540.09,null,null,null,null,null,below,IBstimulus_absent,null,null,6205.675
3,189,3,horizontal,horizontal,no,red,reportColor,2215.575,8582.06,11854.535,9061.8,6193.55,6086.4,above,IBstimulus_absent,null,null,48433.565
3,190,0,horizontal,horizontal,null,null,null,8323.805,null,null,null,null,null,above,IBstimulus_absent,null,null,16825.255
3,190,1,vertical,vertical,null,null,null,3964.27,null,null,null,null,null,above,IBstimulus_absent,null,null,12129.82
3,190,2,horizontal,horizontal,null,null,null,4072.555,null,null,null,null,null,below,IBstimulus_absent,null,null,9284.535
3,190,3,vertical,vertical,no,blue,reportColor,3401.105,6230.73,8769.465,7200.085,5422.36,10472.04,below,IBstimulus_absent,null,null,46211.06
3,191,0,horizontal,horizontal,null,null,null,2933.545,null,null,null,null,null,above,IBstimulus_absent,null,null,11468.74
3,191,1,horizontal,horizontal,null,null,null,1536.98,null,null,null,null,null,below,IBstimulus_absent,null,null,5341.27
3,191,2,vertical,vertical,null,null,null,1603.43,null,null,null,null,null,below,IBstimulus_absent,null,null,5087.19
3,191,3,horizontal,horizontal,no,red,reportColor,1742.045,2735.69,4983.87,4063.91,2639.925,4455.735,above,IBstimulus_absent,null,null,24237.545
3,192,0,horizontal,horizontal,null,null,null,4280,null,null,null,null,null,below,IBstimulus_absent,null,null,12139
3,192,1,horizontal,horizontal,null,null,null,1826,null,null,null,null,null,above,IBstimulus_absent,null,null,7877
3,192,2,vertical,vertical,null,null,null,1764,null,null,null,null,null,above,IBstimulus_absent,null,null,5048
3,192,3,vertical,vertical,yes,blue,reportColor,2959,5623,9087,7776,3707,4612,below,IBstimulus_present,red,left,36789
3,193,0,vertical,vertical,null,null,null,4276,null,null,null,null,null,above,IBstimulus_absent,null,null,13155
3,193,1,vertical,vertical,null,null,null,2009,null,null,null,null,null,below,IBstimulus_absent,null,null,11023
3,193,2,vertical,vertical,null,null,null,1952,null,null,null,null,null,above,IBstimulus_absent,null,null,5985
3,193,3,vertical,vertical,yes,blue,reportColor,13569,3045,5772,6403,4145,4820,below,IBstimulus_present,blue,left,40934
3,194,0,horizontal,horizontal,null,null,null,9082,null,null,null,null,null,above,IBstimulus_absent,null,null,17911
3,194,1,horizontal,horizontal,null,null,null,14916,null,null,null,null,null,below,IBstimulus_absent,null,null,19378
3,194,2,vertical,vertical,null,null,null,2840,null,null,null,null,null,below,IBstimulus_absent,null,null,9658
3,194,3,vertical,horizontal,no,blue,reportColor,1825,5194,8701,3098,3559,4828,below,IBstimulus_present,blue,right,30497
3,195,0,horizontal,horizontal,null,null,null,4492.795,null,null,null,null,null,above,IBstimulus_absent,null,null,10330.685
3,195,1,vertical,vertical,null,null,null,3062.535,null,null,null,null,null,below,IBstimulus_absent,null,null,10448.58
3,195,2,horizontal,horizontal,null,null,null,2164.265,null,null,null,null,null,above,IBstimulus_absent,null,null,5991.4
3,195,3,vertical,vertical,yes,red,reportColor,2986.34,3903.595,4283.95,8727.79,3587.575,5691.815,below,IBstimulus_present,red,right,32850.235
3,196,0,horizontal,horizontal,null,null,null,2863.32,null,null,null,null,null,below,IBstimulus_absent,null,null,10638.7
3,196,1,vertical,vertical,null,null,null,1465.485,null,null,null,null,null,below,IBstimulus_absent,null,null,5164.01
3,196,2,horizontal,horizontal,null,null,null,1480.725,null,null,null,null,null,above,IBstimulus_absent,null,null,4879.635
3,196,3,horizontal,horizontal,no,red,reportColor,4372.505,4311.795,8503.575,6527.495,3303.275,2768.16,below,IBstimulus_present,blue,right,33040.665
3,197,0,horizontal,horizontal,null,null,null,9082,null,null,null,null,null,above,IBstimulus_absent,null,null,17911
3,197,1,horizontal,horizontal,null,null,null,14916,null,null,null,null,null,below,IBstimulus_absent,null,null,19378
3,197,2,vertical,vertical,null,null,null,2840,null,null,null,null,null,below,IBstimulus_absent,null,null,9658
3,197,3,vertical,horizontal,no,blue,reportColor,1825,5194,8701,3098,3559,4828,below,IBstimulus_present,blue,right,30497
3,198,0,horizontal,horizontal,null,null,null,2853.82,null,null,null,null,null,above,IBstimulus_absent,null,null,8464.37
3,198,1,horizontal,horizontal,null,null,null,2231.475,null,null,null,null,null,below,IBstimulus_absent,null,null,13550.99
3,198,2,vertical,vertical,null,null,null,1880.785,null,null,null,null,null,below,IBstimulus_absent,null,null,5897.185
3,198,3,vertical,vertical,yes,blue,reportColor,1985.065,7528.975,7649.545,3727.745,3808.195,4446.665,above,IBstimulus_present,red,left,32424.84
3,199,0,horizontal,horizontal,null,null,null,4227.925,null,null,null,null,null,below,IBstimulus_absent,null,null,16403.245
3,199,1,horizontal,horizontal,null,null,null,2698.4,null,null,null,null,null,below,IBstimulus_absent,null,null,6982.72
3,199,2,horizontal,horizontal,null,null,null,1853.93,null,null,null,null,null,above,IBstimulus_absent,null,null,5437.92
3,199,3,vertical,vertical,no,blue,reportColor,2216.595,6727.455,11586.005,7240.915,4018.14,4928.29,above,IBstimulus_absent,null,null,41121.82
3,200,0,vertical,vertical,null,null,null,6385.555,null,null,null,null,null,below,IBstimulus_absent,null,null,28303.12
3,200,1,horizontal,horizontal,null,null,null,1813.255,null,null,null,null,null,above,IBstimulus_absent,null,null,10975.815
3,200,2,horizontal,horizontal,null,null,null,2195.285,null,null,null,null,null,above,IBstimulus_absent,null,null,6429.5
3,200,3,horizontal,horizontal,no,blue,reportColor,2316.605,5863.33,5838.475,7393.86,3691.415,3825.63,above,IBstimulus_present,blue,left,33982.365
3,201,0,vertical,vertical,null,null,null,6091,null,null,null,null,null,below,IBstimulus_absent,null,null,16629
3,201,1,vertical,vertical,null,null,null,3784,null,null,null,null,null,below,IBstimulus_absent,null,null,11852
3,201,2,horizontal,horizontal,null,null,null,3588,null,null,null,null,null,below,IBstimulus_absent,null,null,8953
3,201,3,horizontal,horizontal,yes,red,reportColor,3557,4705,5138,6027,4104,6604,above,IBstimulus_present,red,right,34444
3,202,0,horizontal,horizontal,null,null,null,3205.54,null,null,null,null,null,below,IBstimulus_absent,null,null,7780.54
